time,ax,ay,az,atotal
0.000,0.15,-0.03,0.39,0.42
0.010,-0.06,0.11,0.50,0.52
0.020,-0.05,0.18,0.48,0.52
0.030,0.05,0.15,0.39,0.42
0.040,0.13,0.07,0.36,0.39
0.050,0.14,-0.04,0.31,0.34
0.060,0.12,-0.09,0.22,0.27
0.070,0.01,-0.06,0.10,0.12
0.080,-0.10,0.02,0.02,0.10
0.090,-0.17,0.07,-0.06,0.20
0.100,-0.21,0.02,-0.16,0.26
0.110,-0.20,-0.02,-0.22,0.29
0.120,-0.13,-0.02,-0.29,0.31
0.130,-0.04,0.01,-0.34,0.35
0.140,-0.04,0.08,-0.38,0.39
0.150,-0.04,0.08,-0.32,0.34
0.160,-0.07,0.00,-0.25,0.26
0.170,-0.09,-0.06,-0.19,0.22
0.180,-0.14,-0.05,-0.14,0.20
0.190,-0.13,0.01,-0.08,0.16
0.200,-0.05,0.08,-0.04,0.10
0.210,-0.00,0.13,0.03,0.13
0.220,-0.00,0.14,0.09,0.17
0.230,0.03,0.12,0.06,0.14
0.240,0.06,0.10,0.02,0.12
0.250,0.08,0.09,0.03,0.12
0.260,0.06,0.04,0.02,0.08
0.270,0.03,-0.04,0.07,0.09
0.280,-0.03,-0.10,0.14,0.18
0.290,-0.10,-0.15,0.17,0.24
0.300,-0.09,-0.15,0.14,0.23
0.310,-0.05,-0.09,0.10,0.15
0.320,-0.07,-0.01,0.02,0.07
0.330,-0.07,0.05,0.01,0.08
0.340,-0.05,0.09,0.09,0.14
0.350,-0.02,0.07,0.16,0.17
0.360,0.05,0.02,0.08,0.10
0.370,0.13,-0.01,-0.05,0.14
0.380,0.13,0.05,-0.19,0.23
0.390,0.12,0.12,-0.27,0.32
0.400,0.12,0.12,-0.31,0.35
0.410,0.09,0.08,-0.28,0.30
0.420,-0.01,0.01,-0.14,0.14
0.430,-0.11,-0.04,0.04,0.12
0.440,-0.13,-0.08,0.11,0.19
0.450,-0.18,-0.09,0.08,0.22
0.460,-0.20,-0.08,-0.00,0.22
0.470,-0.17,-0.05,-0.07,0.19
0.480,-0.11,-0.01,-0.11,0.15
0.490,0.01,0.05,-0.11,0.12
0.500,0.09,0.07,-0.12,0.16
0.510,0.10,0.04,-0.09,0.13
0.520,0.05,0.02,-0.03,0.06
0.530,-0.02,-0.00,0.03,0.04
0.540,-0.08,-0.00,0.08,0.12
0.550,-0.12,-0.03,0.13,0.17
0.560,-0.08,-0.04,0.23,0.25
0.570,-0.03,-0.03,0.26,0.27
0.580,0.06,-0.04,0.25,0.26
0.590,0.06,-0.00,0.18,0.19
0.600,0.04,0.08,0.05,0.10
0.610,0.05,0.11,-0.06,0.13
0.620,-0.01,0.14,-0.15,0.20
0.630,-0.09,0.14,-0.20,0.26
0.640,-0.15,0.12,-0.20,0.28
0.650,-0.20,0.07,-0.23,0.31
0.660,-0.18,0.01,-0.19,0.26
0.671,-0.17,-0.03,-0.18,0.25
0.680,-0.12,-0.06,-0.13,0.19
0.690,-0.10,-0.07,-0.03,0.13
0.700,-0.05,-0.04,0.04,0.07
0.710,-0.00,0.02,0.07,0.07
0.720,-0.00,0.05,0.07,0.08
0.730,-0.00,0.06,0.05,0.08
0.740,-0.04,0.06,0.04,0.08
0.750,-0.06,0.04,0.10,0.13
0.761,-0.09,0.02,0.14,0.17
0.770,-0.06,-0.01,0.13,0.14
0.780,-0.01,-0.07,0.07,0.10
0.790,0.01,-0.09,-0.01,0.09
0.800,0.04,-0.06,-0.07,0.10
0.810,0.06,-0.03,-0.07,0.10
0.821,0.09,-0.05,-0.01,0.10
0.831,0.12,-0.07,0.06,0.16
0.841,0.11,-0.04,0.13,0.17
0.851,0.08,-0.02,0.12,0.15
0.861,0.02,0.02,0.11,0.11
0.871,-0.04,0.05,0.06,0.09
0.880,-0.01,0.06,0.00,0.06
0.891,0.03,0.07,-0.08,0.10
0.901,0.06,0.10,-0.15,0.19
0.911,0.11,0.12,-0.19,0.25
0.921,0.10,0.13,-0.17,0.24
0.931,0.08,0.11,-0.15,0.20
0.941,0.03,0.06,-0.09,0.11
0.951,-0.03,0.03,-0.05,0.06
0.961,-0.04,0.01,-0.06,0.07
0.971,-0.03,0.02,-0.08,0.09
0.981,0.01,0.04,-0.07,0.08
0.991,0.02,0.05,0.03,0.06
1.001,-0.02,0.02,0.12,0.12
1.011,-0.03,-0.03,0.16,0.16
1.021,-0.05,-0.10,0.14,0.18
1.031,-0.10,-0.12,0.11,0.20
1.041,-0.17,-0.12,0.06,0.21
1.051,-0.21,-0.10,-0.00,0.23
1.061,-0.24,-0.10,-0.04,0.26
1.071,-0.21,-0.08,-0.07,0.24
1.081,-0.09,-0.07,-0.09,0.15
1.091,0.03,-0.07,-0.11,0.13
1.101,0.05,-0.01,-0.07,0.08
1.111,0.05,0.05,0.01,0.07
1.121,0.05,0.09,0.03,0.11
1.131,0.05,0.11,0.09,0.16
1.141,0.02,0.12,0.12,0.17
1.151,0.03,0.07,0.04,0.09
1.161,0.01,0.06,-0.07,0.09
1.171,-0.04,0.06,-0.17,0.19
1.181,-0.06,0.06,-0.24,0.25
1.191,-0.06,0.06,-0.21,0.23
1.201,-0.04,0.03,-0.12,0.13
1.211,0.03,0.01,-0.04,0.05
1.221,0.06,-0.01,-0.02,0.06
1.231,0.06,-0.01,-0.04,0.08
1.241,0.02,0.01,-0.07,0.07
1.251,-0.04,0.04,-0.10,0.12
1.261,-0.07,0.05,-0.07,0.11
1.271,-0.11,0.02,-0.05,0.12
1.281,-0.14,-0.01,-0.00,0.14
1.291,-0.11,-0.07,0.02,0.13
1.301,-0.08,-0.08,0.05,0.13
1.311,-0.04,-0.05,0.11,0.12
1.321,-0.02,-0.02,0.17,0.17
1.331,0.02,0.00,0.16,0.16
1.341,0.09,-0.00,0.14,0.17
1.351,0.16,0.02,0.09,0.19
1.361,0.22,0.01,0.01,0.22
1.371,0.23,0.02,-0.12,0.26
1.381,0.21,0.04,-0.18,0.28
1.391,0.13,0.09,-0.15,0.22
1.401,0.06,0.08,-0.08,0.13
1.411,-0.03,0.06,0.06,0.09
1.421,-0.07,0.01,0.16,0.17
1.431,-0.10,-0.05,0.14,0.18
1.441,-0.10,-0.07,0.10,0.16
1.451,-0.12,-0.07,0.04,0.14
1.461,-0.15,-0.04,-0.01,0.15
1.471,-0.15,-0.02,-0.06,0.17
1.481,-0.12,0.00,-0.10,0.15
1.491,-0.06,-0.02,-0.09,0.11
1.501,0.00,-0.05,-0.07,0.08
1.511,0.02,-0.06,-0.04,0.08
1.521,-0.00,-0.06,0.00,0.06
1.531,-0.05,-0.03,0.10,0.12
1.541,-0.04,-0.02,0.14,0.15
1.551,-0.01,-0.02,0.15,0.15
1.561,0.01,0.00,0.08,0.08
1.571,-0.01,0.01,-0.00,0.02
1.581,0.01,0.08,-0.10,0.12
1.591,0.04,0.14,-0.13,0.20
1.601,0.10,0.14,-0.13,0.21
1.611,0.17,0.11,-0.08,0.22
1.621,0.26,0.08,-0.07,0.28
1.631,0.33,0.09,-0.05,0.35
1.641,0.40,0.07,-0.06,0.41
1.651,0.49,0.08,-0.08,0.50
1.661,0.64,0.13,-0.09,0.66
1.671,0.84,0.23,-0.03,0.88
1.681,1.13,0.37,0.05,1.19
1.691,1.45,0.51,0.13,1.54
1.701,1.65,0.69,0.13,1.79
1.711,1.82,0.89,0.04,2.02
1.721,2.02,1.09,-0.15,2.30
1.731,2.40,1.37,-0.17,2.76
1.741,3.66,1.93,0.16,4.14
1.751,5.09,2.52,0.30,5.69
1.761,6.40,2.79,0.25,6.99
1.771,7.27,2.84,0.19,7.81
1.781,7.20,2.47,-0.02,7.61
1.791,6.19,1.96,-0.30,6.50
1.801,4.97,1.85,-0.34,5.31
1.811,4.02,2.12,-0.27,4.55
1.821,3.88,2.48,-0.15,4.61
1.831,4.32,2.53,0.18,5.01
1.841,4.63,2.07,0.33,5.08
1.851,4.38,1.19,0.24,4.55
1.861,3.37,0.12,0.20,3.38
1.871,1.90,-0.95,0.14,2.13
1.881,0.34,-1.89,0.04,1.92
1.891,-1.19,-2.50,-0.29,2.79
1.901,-2.75,-2.89,-0.87,4.09
1.911,-2.96,-3.07,-1.36,4.47
1.921,-3.02,-3.44,-1.54,4.83
1.931,-2.79,-3.72,-1.26,4.82
1.941,-2.78,-3.98,-0.19,4.85
1.951,-2.67,-4.38,0.59,5.17
1.961,-3.07,-4.84,1.10,5.83
1.971,-3.64,-5.12,1.59,6.48
1.981,-4.05,-5.30,1.85,6.93
1.991,-4.22,-5.60,1.83,7.25
2.001,-4.36,-5.89,1.73,7.53
2.011,-4.59,-6.08,1.67,7.80
2.021,-4.90,-6.07,1.66,7.98
2.031,-5.19,-5.97,1.60,8.07
2.041,-5.34,-5.83,1.52,8.05
2.052,-5.36,-5.68,1.45,7.94
2.061,-5.11,-5.54,1.21,7.63
2.071,-4.65,-5.44,0.80,7.20
2.081,-4.26,-5.48,0.28,6.95
2.092,-4.13,-5.76,-0.14,7.08
2.101,-4.12,-5.90,-0.43,7.21
2.111,-4.26,-5.89,-0.57,7.29
2.122,-4.49,-5.84,-0.67,7.40
2.131,-4.71,-5.87,-0.68,7.55
2.142,-4.83,-5.96,-0.59,7.69
2.152,-4.86,-6.13,-0.48,7.83
2.161,-4.74,-6.30,-0.39,7.89
2.172,-4.43,-6.50,-0.26,7.87
2.181,-4.03,-6.58,-0.18,7.72
2.192,-3.59,-6.56,-0.20,7.48
2.202,-2.87,-6.64,-0.40,7.24
2.212,-1.72,-6.84,-0.76,7.10
2.222,-0.26,-7.00,-1.16,7.10
2.232,1.13,-6.90,-1.50,7.15
2.242,3.69,-6.74,-1.68,7.87
2.252,5.86,-6.21,-1.49,8.67
2.262,8.13,-5.30,-1.00,9.76
2.272,10.70,-3.95,-0.51,11.42
2.281,12.36,-2.15,-0.22,12.55
2.292,13.60,-0.77,-0.12,13.62
2.302,14.15,0.97,0.25,14.18
2.312,14.11,2.76,0.85,14.40
2.322,13.48,3.83,1.64,14.11
2.332,12.29,4.49,2.67,13.36
2.342,10.78,4.72,3.72,12.34
2.352,9.55,4.71,4.33,11.50
2.362,8.95,4.55,4.43,10.97
2.372,8.56,4.19,4.01,10.34
2.382,8.13,3.67,3.07,9.43
2.392,7.72,3.40,2.13,8.70
2.402,7.52,3.47,1.27,8.38
2.412,7.53,3.63,0.40,8.37
2.422,7.80,3.73,-0.42,8.65
2.432,7.98,3.65,-0.81,8.81
2.442,7.99,3.45,-0.77,8.74
2.452,7.74,3.06,-0.50,8.34
2.462,7.28,2.41,-0.22,7.67
2.472,6.97,1.73,-0.30,7.19
2.482,6.67,1.19,-0.52,6.80
2.492,6.34,0.78,-0.43,6.40
2.502,6.05,0.31,-0.31,6.06
2.512,5.57,-0.34,-0.38,5.60
2.522,5.03,-1.04,-0.62,5.18
2.532,4.76,-1.58,-0.84,5.09
2.542,4.53,-2.01,-1.06,5.07
2.552,3.97,-2.48,-1.09,4.81
2.562,3.06,-2.93,-0.84,4.32
2.572,1.90,-3.27,-0.38,3.80
2.582,0.88,-3.49,0.11,3.59
2.592,-0.00,-4.01,0.44,4.03
2.602,-0.91,-4.93,0.56,5.05
2.612,-1.37,-5.38,0.35,5.57
2.622,-2.43,-5.50,0.34,6.02
2.632,-3.69,-5.08,0.36,6.29
2.642,-4.94,-4.57,0.51,6.75
2.652,-5.80,-4.44,0.85,7.35
2.662,-5.72,-4.86,1.03,7.58
2.672,-5.57,-5.49,1.01,7.88
2.682,-5.56,-5.84,1.01,8.13
2.692,-5.54,-5.81,1.07,8.10
2.702,-5.34,-5.67,0.95,7.85
2.712,-4.89,-5.41,0.66,7.32
2.722,-4.35,-5.02,0.37,6.66
2.732,-3.80,-4.52,0.16,5.91
2.742,-3.27,-3.87,0.03,5.06
2.752,-2.66,-3.05,0.03,4.05
2.762,-2.07,-2.42,0.08,3.19
2.772,-1.67,-2.04,0.11,2.64
2.782,-1.37,-1.76,0.16,2.24
2.792,-1.12,-1.60,0.16,1.96
2.802,-0.95,-1.45,0.15,1.74
2.812,-0.93,-1.27,0.02,1.57
2.822,-1.03,-1.03,-0.14,1.46
2.832,-1.15,-0.85,-0.31,1.46
2.842,-1.19,-0.75,-0.33,1.44
2.852,-1.22,-0.73,-0.22,1.44
2.862,-1.09,-0.70,-0.18,1.31
2.872,-0.79,-0.67,-0.20,1.06
2.882,-0.44,-0.54,-0.28,0.75
2.892,-0.11,-0.36,-0.36,0.52
2.902,0.15,-0.19,-0.49,0.55
2.912,0.40,-0.15,-0.65,0.77
2.922,0.37,0.36,-0.82,0.97
2.932,0.15,0.60,-0.97,1.15
2.942,-0.02,0.71,-1.06,1.28
2.952,-0.16,0.78,-1.02,1.29
2.962,-0.49,0.96,-0.79,1.33
2.972,-0.91,1.16,-0.46,1.54
2.982,-1.25,1.31,-0.22,1.82
2.992,-1.46,1.38,0.02,2.01
3.002,-1.69,1.35,0.40,2.20
3.012,-1.95,1.18,0.88,2.44
3.022,-2.26,0.94,1.22,2.74
3.032,-2.67,0.70,1.50,3.14
3.042,-3.08,0.47,1.67,3.54
3.052,-3.34,0.14,1.55,3.68
3.062,-3.47,-0.33,1.21,3.69
3.072,-3.60,-0.84,0.76,3.77
3.082,-3.69,-1.33,0.25,3.93
3.092,-3.60,-1.85,-0.13,4.05
3.102,-3.31,-2.34,-0.44,4.07
3.112,-2.75,-2.75,-0.76,3.97
3.122,-2.21,-3.15,-0.95,3.96
3.132,-1.89,-3.60,-0.90,4.16
3.142,-1.83,-4.27,-0.71,4.70
3.152,-1.99,-4.92,-0.52,5.33
3.162,-2.28,-5.39,-0.40,5.86
3.172,-2.57,-5.68,-0.26,6.24
3.182,-2.75,-6.01,0.09,6.61
3.192,-2.83,-6.45,0.44,7.06
3.202,-2.76,-6.87,0.67,7.43
3.212,-2.65,-7.21,0.80,7.72
3.222,-2.54,-7.35,0.88,7.82
3.232,-2.59,-7.16,0.97,7.68
3.242,-2.70,-6.91,1.24,7.53
3.252,-2.47,-6.97,1.37,7.52
3.262,-1.98,-7.34,1.31,7.72
3.272,-1.44,-7.77,1.16,7.99
3.282,-1.02,-7.89,0.84,8.00
3.292,-0.73,-7.59,0.44,7.63
3.302,-0.23,-7.12,0.13,7.12
3.312,0.71,-6.60,-0.09,6.64
3.322,1.77,-5.99,-0.33,6.26
3.332,4.20,-5.61,-0.46,7.02
3.342,6.34,-5.23,-0.20,8.22
3.352,9.06,-4.55,0.51,10.15
3.362,11.52,-3.48,1.57,12.13
3.373,13.37,-2.26,2.32,13.76
3.382,14.39,-1.07,2.26,14.60
3.393,14.62,-0.08,1.88,14.74
3.403,14.06,0.79,1.83,14.20
3.412,13.14,1.36,1.57,13.30
3.423,11.99,1.63,0.80,12.13
3.433,10.78,1.55,-0.20,10.89
3.443,8.96,1.44,-0.73,9.11
3.453,6.94,1.39,-0.83,7.12
3.463,5.41,1.03,-0.92,5.59
3.473,4.29,0.41,-0.75,4.37
3.482,3.24,-0.03,-0.09,3.24
3.492,2.00,-0.10,1.01,2.24
3.502,0.58,0.13,1.82,1.92
3.513,-0.74,0.60,2.07,2.28
3.523,-1.75,1.29,1.70,2.75
3.532,-2.53,2.31,0.95,3.56
3.543,-2.86,3.39,0.37,4.45
3.553,-2.60,4.30,0.06,5.02
3.563,-1.64,4.93,-0.47,5.22
3.573,-0.34,5.53,-1.18,5.67
3.582,0.74,6.42,-1.61,6.66
3.593,1.92,7.50,-1.81,7.95
3.603,2.88,8.34,-1.50,8.95
3.613,3.29,8.98,-0.51,9.57
3.623,3.36,9.43,0.74,10.03
3.633,3.34,9.28,1.70,10.01
3.643,3.23,8.49,2.29,9.36
3.653,2.97,7.67,2.71,8.65
3.663,2.61,6.97,2.71,7.92
3.673,2.29,6.35,2.11,7.07
3.683,1.87,5.88,1.00,6.25
3.693,1.49,5.49,-0.67,5.73
3.703,0.99,4.63,-2.51,5.36
3.713,0.57,3.76,-3.73,5.32
3.723,-0.30,2.71,-3.25,4.24
3.733,-0.90,1.07,-2.58,2.93
3.743,-1.18,-0.42,-2.57,2.86
3.753,-2.93,-2.00,-2.41,4.29
3.763,-3.68,-2.88,-1.97,5.07
3.773,-4.56,-3.99,-1.62,6.27
3.783,-5.39,-6.02,-1.23,8.17
3.793,-5.54,-7.18,-0.82,9.10
3.803,-5.39,-7.80,-0.27,9.49
3.813,-4.56,-8.22,-0.03,9.40
3.823,-3.88,-8.34,0.09,9.20
3.833,-3.28,-8.56,0.21,9.17
3.843,-2.49,-9.06,0.26,9.40
3.853,-1.51,-9.67,0.03,9.79
3.863,-0.63,-10.01,0.19,10.03
3.873,0.27,-10.13,0.69,10.16
3.883,0.58,-9.74,1.24,9.83
3.893,0.49,-8.94,1.82,9.14
3.903,0.35,-8.08,2.26,8.40
3.913,0.19,-7.21,2.53,7.65
3.923,0.24,-6.51,2.41,6.95
3.933,0.82,-6.10,1.63,6.37
3.943,1.77,-5.76,0.41,6.04
3.953,2.29,-5.44,-0.56,5.92
3.963,2.42,-4.66,-1.31,5.41
3.973,2.35,-3.34,-2.04,4.56
3.983,1.77,-2.09,-2.27,3.55
3.993,1.49,-1.39,-2.30,3.07
4.003,1.69,-1.25,-2.36,3.16
4.013,1.76,-0.99,-2.16,2.96
4.023,1.34,-0.24,-1.50,2.03
4.033,0.53,0.79,-0.83,1.27
4.043,-0.33,2.00,-0.21,2.04
4.053,-0.79,2.58,0.41,2.73
4.063,-2.40,3.64,1.31,4.55
4.073,-3.77,4.87,2.11,6.51
4.083,-4.66,5.08,2.13,7.22
4.093,-4.95,5.46,1.80,7.58
4.103,-4.90,6.22,1.52,8.07
4.113,-4.24,7.10,1.48,8.41
4.123,-3.00,7.93,1.62,8.63
4.133,-1.68,8.48,1.93,8.85
4.143,-0.88,8.92,2.60,9.33
4.153,-0.37,9.31,3.38,9.91
4.163,0.64,9.28,3.80,10.04
4.173,1.98,9.04,3.79,10.00
4.183,3.17,8.92,3.59,10.12
4.193,4.14,8.79,3.41,10.30
4.203,4.84,8.48,3.15,10.26
4.213,5.13,8.10,2.83,10.00
4.223,4.87,7.76,2.34,9.45
4.233,4.19,7.37,1.65,8.63
4.243,3.51,6.34,0.79,7.29
4.253,2.57,5.01,0.17,5.63
4.263,1.27,3.89,-0.14,4.10
4.273,0.14,2.88,-0.30,2.90
4.283,-0.79,1.84,-0.52,2.07
4.293,-0.59,0.79,-1.34,1.66
4.303,0.39,-0.31,-2.68,2.72
4.313,1.11,-1.62,-3.76,4.24
4.323,2.36,-3.16,-4.48,5.97
4.333,2.36,-4.14,-4.38,6.47
4.343,1.54,-4.47,-3.47,5.86
4.353,1.10,-5.11,-2.45,5.78
4.363,1.34,-6.50,-1.69,6.85
4.373,1.86,-7.69,-1.43,8.04
4.383,2.30,-8.29,-1.24,8.69
4.393,2.23,-8.92,-0.60,9.21
4.406,1.55,-9.63,0.97,9.80
4.416,0.23,-10.01,2.79,10.40
4.426,-0.84,-10.17,3.92,10.93
4.436,-1.32,-10.24,4.12,11.12
4.446,-1.56,-10.02,3.59,10.76
4.456,-1.67,-9.46,2.54,9.93
4.466,-1.47,-8.76,1.12,8.96
4.476,-0.80,-7.87,-0.26,7.91
4.486,-0.43,-7.40,-1.54,7.57
4.496,-0.78,-6.63,-2.35,7.08
4.506,-1.37,-5.44,-2.67,6.22
4.516,-1.26,-4.40,-2.72,5.32
4.526,-0.20,-3.35,-2.75,4.34
4.536,1.53,-1.69,-2.86,3.66
4.546,3.25,-0.20,-2.46,4.08
4.556,4.12,1.35,-1.36,4.54
4.566,4.61,2.87,0.09,5.43
4.576,4.43,4.93,1.67,6.83
4.586,4.52,5.96,2.85,8.00
4.596,4.92,6.57,3.21,8.81
4.606,5.35,7.02,3.22,9.39
4.616,5.83,7.45,3.22,9.99
4.626,6.27,7.65,3.34,10.44
4.636,6.52,7.49,3.26,10.45
4.646,6.44,7.08,3.06,10.05
4.656,5.86,6.62,2.81,9.27
4.666,4.90,6.09,2.40,8.18
4.676,3.84,5.50,1.98,7.00
4.686,2.44,4.82,1.60,5.63
4.696,1.02,3.88,1.32,4.22
4.706,-1.01,3.01,1.35,3.45
4.716,-2.85,2.36,1.28,3.92
4.726,-3.75,1.10,0.39,3.93
4.736,-5.19,-0.60,-0.89,5.30
4.746,-6.64,-2.39,-2.39,7.45
4.756,-8.04,-3.57,-3.89,9.62
4.766,-9.17,-3.75,-4.98,11.09
4.776,-10.60,-4.49,-5.88,12.93
4.786,-11.66,-5.39,-5.82,14.10
4.796,-12.39,-5.91,-5.19,14.67
4.806,-12.50,-6.20,-3.85,14.47
4.816,-11.74,-6.30,-2.30,13.52
4.826,-10.36,-6.40,-0.63,12.20
4.836,-8.38,-6.61,0.85,10.71
4.846,-6.15,-6.51,1.84,9.14
4.856,-4.46,-5.99,2.19,7.79
4.866,-3.16,-4.84,2.22,6.20
4.876,-2.05,-3.74,2.00,4.71
4.886,-1.38,-3.35,1.56,3.94
4.896,-1.01,-3.09,0.63,3.31
4.906,-1.03,-3.25,-0.40,3.43
4.916,-1.40,-3.59,-1.11,4.01
4.926,-1.95,-3.85,-1.34,4.52
4.936,-2.41,-4.15,-1.38,5.00
4.946,-2.65,-4.53,-1.87,5.57
4.956,-2.43,-4.82,-2.82,6.09
4.966,-1.45,-4.51,-3.70,6.01
4.976,-0.18,-3.82,-4.14,5.64
4.986,0.98,-3.17,-4.11,5.28
4.996,1.78,-2.88,-3.55,4.90
5.006,3.41,-3.22,-2.51,5.32
5.016,4.16,-3.59,-0.24,5.50
5.026,5.07,-3.31,0.95,6.13
5.036,6.10,-2.50,0.66,6.63
5.046,7.30,-1.53,0.74,7.50
5.056,9.81,0.04,0.41,9.82
5.066,11.58,0.62,-0.25,11.60
5.076,12.43,1.03,-0.94,12.51
5.086,12.41,0.79,-1.13,12.49
5.096,11.97,0.73,-0.48,12.00
5.106,11.75,1.07,0.58,11.81
5.116,12.03,1.60,1.61,12.24
5.126,12.84,1.64,2.22,13.13
5.136,13.69,1.90,1.91,13.96
5.146,13.62,2.60,0.83,13.89
5.156,13.39,2.97,-0.03,13.71
5.166,13.21,2.85,-0.32,13.52
5.176,12.59,2.29,-0.04,12.80
5.186,11.15,1.67,0.31,11.28
5.196,9.38,0.91,0.38,9.43
5.206,6.93,-0.77,0.32,6.98
5.216,5.76,-0.94,0.47,5.86
5.226,6.29,-0.66,0.02,6.33
5.236,6.43,-1.13,-1.21,6.64
5.246,6.01,-1.69,-2.15,6.60
5.256,5.47,-2.27,-2.33,6.36
5.266,5.14,-2.79,-2.17,6.24
5.276,5.12,-3.11,-2.39,6.45
5.286,5.00,-3.53,-2.63,6.66
5.296,4.37,-4.28,-2.23,6.51
5.306,3.40,-5.60,-1.36,6.69
5.316,1.91,-6.59,-0.19,6.87
5.326,0.37,-6.97,1.18,7.07
5.336,-0.64,-7.33,1.89,7.60
5.346,-1.41,-7.62,2.28,8.08
5.356,-2.02,-7.57,2.46,8.21
5.366,-2.52,-7.56,2.02,8.22
5.376,-3.05,-7.52,1.37,8.22
5.386,-3.89,-7.79,0.60,8.73
5.396,-4.83,-8.02,-0.14,9.36
5.406,-5.64,-8.11,-0.72,9.90
5.416,-6.46,-8.22,-1.11,10.51
5.426,-7.36,-8.36,-1.22,11.20
5.436,-8.29,-8.42,-0.96,11.86
5.446,-9.22,-8.43,-0.28,12.49
5.456,-10.12,-8.29,0.79,13.11
5.466,-10.90,-7.91,1.93,13.61
5.476,-11.48,-7.45,2.86,13.98
5.486,-11.78,-7.20,3.43,14.23
5.496,-12.14,-7.04,3.54,14.47
5.506,-12.48,-6.89,3.19,14.61
5.516,-12.43,-6.64,2.60,14.33
5.526,-12.38,-6.46,2.05,14.12
5.536,-12.38,-6.44,1.46,14.03
5.546,-12.17,-6.39,1.05,13.78
5.556,-11.68,-6.27,0.87,13.29
5.566,-10.98,-6.22,0.59,12.64
5.576,-10.43,-6.31,0.14,12.19
5.586,-9.97,-6.68,-0.23,12.00
5.596,-9.40,-7.06,-0.50,11.76
5.606,-8.52,-7.49,-0.60,11.36
5.616,-7.21,-8.00,-0.72,10.79
5.626,-5.38,-8.50,-0.99,10.10
5.636,-2.68,-9.08,-1.62,9.61
5.646,1.15,-9.70,-2.90,10.19
5.656,6.41,-9.38,-4.40,12.18
5.666,11.70,-7.95,-5.40,15.14
5.676,15.62,-5.81,-5.49,17.54
5.686,17.73,-3.54,-4.60,18.66
5.696,18.34,-1.77,-2.94,18.66
5.707,17.91,-0.47,-0.65,17.93
5.716,16.57,0.61,1.95,16.69
5.727,14.56,1.61,3.92,15.17
5.737,12.34,2.59,4.44,13.37
5.747,10.21,3.08,3.63,11.26
5.757,8.10,2.62,2.12,8.77
5.767,6.02,1.96,0.99,6.41
5.777,4.28,1.44,0.02,4.51
5.787,3.68,0.93,-1.08,3.95
5.797,4.21,0.38,-2.51,4.91
5.807,5.26,0.33,-3.20,6.17
5.817,6.50,0.71,-2.64,7.06
5.827,6.28,1.42,-2.22,6.81
5.837,6.13,1.09,-1.15,6.33
5.847,5.53,0.68,-0.11,5.57
5.857,4.51,0.54,-0.30,4.55
5.867,3.19,0.59,-0.30,3.25
5.877,2.43,0.60,0.17,2.51
5.887,2.35,0.63,0.54,2.49
5.897,1.28,-0.19,0.27,1.33
5.907,0.71,-0.93,-0.06,1.17
5.917,0.44,-1.28,-0.32,1.39
5.927,0.06,-1.19,-0.23,1.22
5.937,-0.20,-0.98,0.06,1.00
5.947,-0.55,-0.63,0.47,0.96
5.957,-1.12,-0.62,0.84,1.53
5.967,-2.04,-0.77,0.89,2.35
5.977,-2.69,-0.77,1.13,3.02
5.987,-2.74,-0.51,2.36,3.66
5.997,-2.16,-0.51,4.04,4.61
6.007,-1.21,-1.22,4.84,5.13
6.017,-0.63,-2.05,4.18,4.70
6.027,-0.35,-2.31,2.30,3.28
6.037,-0.23,-1.80,0.15,1.83
6.047,-0.18,-0.71,-1.73,1.88
6.057,0.03,0.84,-3.26,3.36
6.067,-0.17,0.83,-3.37,3.47
6.077,-0.31,0.34,-2.53,2.57
6.087,-0.24,-0.43,-1.78,1.84
6.097,-0.30,-0.99,-1.35,1.70
6.107,-0.44,-0.87,-1.21,1.56
6.117,-0.55,-0.37,-0.92,1.14
6.127,-0.44,-0.16,-0.44,0.64
6.137,-0.20,-0.41,-0.25,0.52
6.147,-0.09,-0.74,-0.51,0.90
6.157,-0.08,-0.98,-1.07,1.45
6.167,-0.12,-1.33,-1.55,2.05
6.177,-0.31,-1.84,-1.59,2.45
6.187,-0.68,-1.89,-1.23,2.35
6.197,-1.20,-1.56,-1.13,2.27
6.207,-1.54,-0.79,-0.97,1.98
6.217,-1.47,0.20,-0.48,1.56
6.227,-0.90,1.12,0.08,1.44
6.237,-0.17,1.57,0.10,1.58
6.247,0.18,1.42,-0.16,1.44
6.257,0.04,0.81,-0.08,0.82
6.267,-0.21,-0.05,0.29,0.36
6.277,-0.40,-0.74,0.51,0.99
6.287,-0.66,-1.04,1.68,2.09
6.297,-0.99,-0.81,2.62,2.91
6.307,-1.16,-0.44,2.51,2.80
6.317,-1.17,-0.09,1.96,2.28
6.327,-1.14,0.10,1.84,2.17
6.337,-1.04,-0.04,2.11,2.35
6.347,-0.93,-0.33,2.25,2.46
6.357,-0.96,-0.54,1.94,2.23
6.367,-1.04,-0.61,1.17,1.68
6.377,-1.09,-0.63,0.40,1.32
6.387,-1.07,-0.62,-0.11,1.24
6.397,-1.00,-0.61,-0.46,1.26
6.407,-0.95,-0.56,-0.81,1.37
6.417,-0.98,-0.42,-1.11,1.54
6.427,-0.99,-0.35,-1.24,1.63
6.437,-0.96,-0.30,-1.29,1.64
6.447,-0.91,-0.16,-1.15,1.47
6.457,-0.77,0.03,-0.78,1.10
6.467,-0.55,0.15,-0.32,0.66
6.477,-0.33,0.19,0.15,0.41
6.487,-0.11,0.18,0.44,0.49
6.497,0.17,0.12,0.51,0.55
6.507,0.43,0.03,0.39,0.58
6.517,0.60,0.01,0.16,0.62
6.527,0.65,0.13,0.03,0.67
6.537,0.61,0.22,0.14,0.66
6.547,0.54,0.16,0.26,0.62
6.557,0.44,0.08,0.22,0.50
6.567,0.26,0.09,0.13,0.31
6.577,0.11,0.14,0.12,0.21
6.587,0.09,0.11,0.19,0.23
6.597,0.08,0.03,0.23,0.24
6.607,0.07,-0.04,0.17,0.19
6.617,0.09,-0.10,0.04,0.14
6.627,0.16,-0.08,-0.03,0.18
6.637,0.23,-0.02,0.08,0.25
6.647,0.27,0.03,0.27,0.38
6.657,0.20,0.07,0.35,0.41
6.667,0.06,0.01,0.34,0.35
6.677,-0.04,-0.15,0.24,0.28
6.687,-0.14,-0.30,0.07,0.34
6.697,-0.26,-0.26,-0.09,0.38
6.707,-0.37,-0.20,-0.14,0.45
6.717,-0.42,-0.23,-0.09,0.48
6.727,-0.36,-0.27,0.00,0.45
6.737,-0.30,-0.25,0.07,0.40
6.747,-0.30,-0.14,0.15,0.37
6.757,-0.31,-0.09,0.28,0.42
6.767,-0.29,-0.13,0.31,0.45
6.777,-0.26,-0.20,0.17,0.37
6.787,-0.18,-0.11,-0.00,0.21
6.797,-0.14,-0.01,-0.11,0.18
6.807,-0.10,0.03,-0.16,0.19
6.817,-0.13,-0.00,-0.20,0.24
6.827,-0.22,-0.09,-0.30,0.38
6.837,-0.26,-0.21,-0.34,0.47
6.847,-0.25,-0.27,-0.43,0.57
6.857,-0.24,-0.29,-0.56,0.67
6.867,-0.29,-0.13,-0.62,0.70
6.877,-0.38,0.05,-0.50,0.63
6.887,-0.38,0.14,-0.10,0.42
6.897,-0.37,0.06,0.41,0.55
6.907,-0.27,-0.05,0.68,0.73
6.917,-0.13,-0.01,0.66,0.68
6.927,0.02,0.03,0.60,0.60
6.937,0.24,0.03,0.42,0.48
6.947,0.39,0.04,0.23,0.45
6.957,0.42,0.05,0.10,0.44
6.967,0.43,0.08,0.08,0.44
6.977,0.38,0.08,0.03,0.39
6.987,0.27,0.06,0.01,0.28
6.997,0.20,0.04,0.02,0.21
7.007,0.16,0.02,0.09,0.18
7.017,0.10,0.00,0.18,0.21
7.027,0.05,-0.12,0.19,0.23
7.037,-0.06,-0.22,0.06,0.24
7.047,-0.16,-0.21,-0.10,0.28
7.057,-0.20,-0.11,-0.15,0.28
7.067,-0.23,-0.06,-0.08,0.25
7.078,-0.23,-0.05,-0.07,0.24
7.088,-0.25,-0.06,-0.02,0.26
7.098,-0.21,-0.03,0.00,0.21
7.108,-0.21,-0.02,-0.05,0.21
7.118,-0.19,-0.04,-0.13,0.24
7.128,-0.18,-0.02,-0.22,0.29
7.138,-0.17,-0.01,-0.30,0.35
7.148,-0.14,-0.02,-0.31,0.34
7.158,-0.12,-0.00,-0.26,0.28
7.168,-0.10,0.02,-0.18,0.21
7.178,-0.06,0.02,-0.05,0.08
7.188,-0.03,0.01,0.11,0.11
7.198,-0.01,-0.01,0.15,0.15
7.208,0.06,-0.00,0.07,0.09
7.218,0.15,-0.05,-0.03,0.16
7.228,0.25,-0.03,-0.11,0.28
7.238,0.32,0.03,-0.17,0.36
7.248,0.45,0.08,-0.27,0.53
7.258,0.47,0.08,-0.32,0.58
7.268,0.47,0.11,-0.34,0.59
7.278,0.53,0.16,-0.32,0.64
7.288,0.62,0.12,-0.34,0.72
7.298,0.77,0.16,-0.58,0.98
7.308,0.80,0.20,-0.77,1.13
7.318,-0.19,0.15,-0.85,0.89
7.328,-1.19,0.04,-1.22,1.71
7.338,-0.89,-0.88,-2.52,2.82
7.348,-0.08,-1.43,-2.91,3.25
7.358,1.82,-1.61,-1.17,2.69
7.368,2.42,-1.81,-0.58,3.08
7.378,2.00,-1.50,0.26,2.51
7.388,1.17,-1.22,1.11,2.03
7.398,0.85,-1.60,1.80,2.55
7.408,0.70,-2.10,2.38,3.25
7.418,0.44,-2.26,3.03,3.81
7.428,0.49,-2.30,3.04,3.84
7.438,0.33,-2.26,2.66,3.50
7.448,-0.05,-2.01,2.15,2.95
7.458,-0.18,-1.46,1.54,2.13
7.468,0.07,-0.58,1.08,1.23
7.478,0.74,0.55,0.82,1.23
7.488,1.74,1.69,0.44,2.47
7.498,3.01,2.77,-0.16,4.10
7.508,3.94,3.59,-0.63,5.37
7.518,4.28,4.00,-0.71,5.90
7.528,4.11,4.13,-0.30,5.83
7.538,3.55,4.22,0.27,5.53
7.548,2.89,4.22,0.55,5.15
7.558,2.71,4.19,0.56,5.02
7.568,2.84,4.46,0.43,5.31
7.578,3.31,4.76,0.48,5.82
7.588,3.57,4.78,0.47,5.99
7.598,3.44,4.44,0.24,5.62
7.608,2.96,3.66,-0.16,4.71
7.618,2.16,2.52,-0.67,3.39
7.628,1.14,1.45,-1.22,2.21
7.638,0.25,0.73,-1.58,1.76
7.648,-0.29,0.14,-1.93,1.96
7.658,-0.91,-0.61,-1.88,2.17
7.668,-2.53,-1.76,-1.37,3.37
7.678,-4.82,-2.80,-0.86,5.64
7.688,-6.98,-3.68,-0.11,7.89
7.698,-8.54,-4.22,0.78,9.55
7.708,-8.66,-4.74,0.64,9.89
7.718,-7.91,-5.04,-0.18,9.39
7.728,-6.75,-5.08,-0.59,8.47
7.738,-6.35,-5.33,-0.93,8.34
7.748,-7.01,-5.49,-0.79,8.94
7.758,-7.82,-5.97,-0.27,9.84
7.768,-8.47,-6.61,0.09,10.74
7.778,-8.90,-6.98,0.23,11.31
7.788,-8.79,-7.06,0.51,11.28
7.798,-8.05,-6.92,0.81,10.65
7.808,-6.90,-6.66,0.81,9.63
7.818,-5.64,-6.16,0.57,8.37
7.828,-4.15,-5.53,0.44,6.93
7.838,-2.52,-4.96,0.31,5.57
7.848,-0.84,-4.35,0.04,4.43
7.858,0.74,-3.58,-0.35,3.68
7.868,2.58,-2.58,-0.49,3.69
7.878,5.35,-1.17,-0.42,5.49
7.888,6.66,0.21,-0.42,6.67
7.898,8.70,1.72,-0.40,8.88
7.908,10.67,3.22,0.04,11.15
7.918,11.94,4.33,0.28,12.71
7.928,12.45,5.09,-0.12,13.46
7.938,12.77,5.10,-0.98,13.78
7.948,13.18,4.37,-0.27,13.88
7.958,13.09,3.60,2.32,13.77
7.968,12.40,2.85,3.25,13.13
7.978,10.46,2.67,3.56,11.36
7.986,8.57,2.69,3.77,9.74
7.996,6.91,2.14,3.89,8.22
8.006,4.86,1.71,3.84,6.43
8.016,3.52,1.29,3.51,5.14
8.026,3.22,0.38,3.08,4.47
8.036,2.74,-0.61,1.86,3.37
8.046,2.22,-1.67,0.66,2.85
8.056,1.03,-2.61,0.36,2.83
8.066,-0.85,-3.57,1.22,3.87
8.076,-2.51,-4.14,2.63,5.51
8.086,-3.54,-3.46,3.74,6.20
8.096,-4.57,-2.40,3.42,6.19
8.106,-4.46,-1.98,1.38,5.07
8.116,-4.27,-4.25,-1.80,6.29
8.126,-4.67,-4.77,-4.64,8.13
8.136,-6.16,-5.30,-6.16,10.20
8.146,-8.24,-5.40,-6.37,11.73
8.156,-10.01,-5.38,-5.47,12.61
8.166,-10.71,-5.35,-4.34,12.74
8.176,-10.64,-5.69,-3.41,12.53
8.186,-9.59,-5.52,-2.62,11.37
8.196,-8.76,-5.57,-2.14,10.60
8.206,-7.83,-5.87,-1.72,9.93
8.216,-6.45,-5.13,-1.07,8.31
8.226,-4.33,-3.56,-0.30,5.62
8.236,-1.90,-2.25,0.58,3.00
8.246,0.09,-1.62,1.06,1.94
8.256,1.69,-1.44,1.17,2.51
8.266,2.80,-1.56,1.32,3.47
8.276,3.86,-1.05,1.21,4.18
8.286,5.30,-0.12,1.63,5.55
8.296,5.22,0.73,5.34,7.50
8.306,5.34,1.10,5.75,7.92
8.316,4.41,0.69,1.44,4.69
8.326,4.46,0.27,-0.54,4.50
8.336,4.86,0.69,-0.84,4.98
8.346,5.53,1.05,-0.59,5.66
8.356,6.12,1.39,-0.05,6.27
8.366,6.45,1.57,0.45,6.65
8.376,6.54,1.68,0.82,6.80
8.386,5.73,2.00,0.93,6.14
8.396,4.73,2.02,0.60,5.18
8.407,4.11,1.56,-0.21,4.40
8.417,3.89,1.11,-1.30,4.25
8.427,2.98,0.80,-2.25,3.82
8.437,1.09,0.46,-3.47,3.67
8.447,3.65,0.80,-3.00,4.79
8.457,2.77,2.10,-1.95,3.98
8.467,3.34,2.28,-1.47,4.31
8.477,3.20,1.99,-1.10,3.92
8.487,3.15,1.37,-1.36,3.70
8.497,3.17,0.88,-1.92,3.81
8.507,3.07,0.41,-2.42,3.93
8.518,2.85,0.04,-2.68,3.91
8.528,2.07,-0.26,-2.26,3.08
8.537,0.89,-0.66,-1.18,1.62
8.548,-0.39,-0.92,0.00,1.00
8.558,-1.72,-1.31,1.14,2.44
8.567,-2.58,-1.96,1.89,3.76
8.578,-3.39,-3.21,2.30,5.21
8.587,-4.98,-4.81,2.05,7.22
8.598,-7.01,-6.01,1.47,9.35
8.608,-8.68,-6.74,0.77,11.01
8.618,-9.74,-6.91,-0.04,11.94
8.628,-10.24,-6.71,-0.30,12.25
8.637,-10.03,-6.23,0.25,11.80
8.648,-8.81,-5.38,0.64,10.35
8.658,-7.07,-4.38,0.55,8.33
8.668,-4.47,-3.53,0.21,5.70
8.678,-1.70,-3.00,-0.02,3.45
8.688,0.84,-1.94,0.18,2.12
8.698,3.01,-0.38,0.76,3.13
8.708,4.33,0.94,1.23,4.60
8.718,5.23,1.90,1.41,5.74
8.728,5.60,2.36,1.09,6.18
8.738,5.45,2.70,0.55,6.10
8.748,5.42,2.91,0.07,6.15
8.758,5.63,2.94,-0.25,6.36
8.768,5.91,3.01,-0.41,6.64
8.778,5.85,2.82,-0.63,6.52
8.788,4.87,1.79,-0.98,5.28
8.798,2.66,-0.28,-1.78,3.21
8.808,1.06,-0.44,-1.99,2.29
8.818,0.74,1.35,0.07,1.54
8.828,1.17,3.15,3.45,4.82
8.838,2.24,3.36,4.43,5.99
8.848,3.30,2.71,4.56,6.25
8.858,3.96,1.29,3.44,5.40
8.868,3.47,0.82,1.42,3.84
8.878,2.12,0.72,-0.74,2.36
8.888,0.68,0.14,-2.18,2.29
8.898,-0.11,-0.36,-2.03,2.06
8.908,-0.72,-0.55,-1.33,1.61
8.918,-0.87,-0.73,-0.90,1.45
8.928,-1.13,-1.12,-0.82,1.80
8.938,-1.86,-1.56,-0.82,2.57
8.948,-2.62,-1.98,-0.37,3.30
8.958,-2.79,-2.27,0.16,3.60
8.968,-2.89,-2.86,0.40,4.09
8.978,-3.15,-3.15,1.00,4.57
8.988,-3.14,-2.41,1.21,4.14
8.998,-2.53,-0.73,0.36,2.66
9.008,-2.31,0.51,-0.26,2.38
9.018,-2.12,0.47,-0.80,2.31
9.028,-1.99,-0.99,-1.47,2.67
9.038,-2.06,-2.72,-1.74,3.83
9.048,-1.59,-3.34,-1.98,4.19
9.058,-0.90,-2.56,-2.07,3.41
9.068,-0.86,-1.13,-1.67,2.19
9.078,-0.94,-0.22,-1.37,1.68
9.088,-0.87,-0.12,-1.52,1.75
9.098,-1.08,-0.48,-2.03,2.35
9.108,-1.49,-0.57,-2.26,2.77
9.118,-1.53,-0.46,-1.15,1.97
9.128,-0.08,-0.09,-0.10,0.15
9.138,1.26,-0.16,1.70,2.12
9.148,2.35,0.11,2.93,3.76
9.158,3.02,0.62,3.51,4.67
9.168,2.96,1.06,3.24,4.52
9.178,2.55,1.36,2.42,3.77
9.188,1.64,1.27,1.54,2.58
9.198,0.65,0.57,0.85,1.21
9.208,0.76,0.59,0.42,1.05
9.218,1.32,0.81,0.22,1.56
9.228,1.40,0.84,-0.13,1.64
9.238,1.12,0.96,-0.61,1.60
9.248,0.64,0.69,-0.86,1.27
9.258,0.12,0.36,-0.95,1.03
9.268,-0.31,0.32,-1.07,1.16
9.278,-0.58,0.47,-1.15,1.37
9.288,-0.63,0.67,-1.18,1.49
9.298,-0.38,0.67,-1.08,1.33
9.308,-0.00,0.49,-0.61,0.78
9.318,0.19,0.25,-0.17,0.36
9.328,-0.10,-0.09,0.18,0.22
9.338,-0.97,-0.51,0.37,1.16
9.348,-2.05,-1.52,0.23,2.56
9.358,-3.17,-2.77,0.39,4.23
9.368,-3.75,-2.55,0.19,4.54
9.378,-3.61,-1.87,0.40,4.08
9.388,-2.45,-0.84,1.24,2.87
9.398,-0.88,-0.20,1.77,1.99
9.408,0.48,-0.00,1.78,1.85
9.418,1.12,-0.08,1.40,1.79
9.428,0.95,-0.34,1.04,1.45
9.438,0.21,-0.41,1.00,1.10
9.448,-0.46,-0.26,1.26,1.36
9.458,-0.56,-0.09,1.55,1.65
9.468,-0.28,0.01,1.66,1.68
9.478,0.06,-0.07,1.47,1.47
9.488,0.24,-0.26,1.05,1.11
9.498,0.42,-0.32,0.51,0.73
9.508,0.64,-0.23,-0.07,0.68
9.518,0.93,-0.06,-0.49,1.06
9.528,1.30,0.17,-0.90,1.59
9.538,1.50,0.31,-1.13,1.90
9.548,1.48,0.30,-1.06,1.85
9.558,1.21,0.08,-0.86,1.49
9.568,0.75,-0.19,-0.58,0.96
9.578,0.38,-0.27,-0.33,0.57
9.588,0.11,-0.24,-0.23,0.35
9.598,0.04,-0.22,-0.23,0.32
9.608,0.08,-0.15,-0.43,0.46
9.618,0.08,0.04,-0.63,0.64
9.628,-0.05,0.10,-0.77,0.78
9.638,-0.39,-0.07,-0.85,0.93
9.648,-0.70,-0.21,-0.83,1.10
9.658,-0.89,-0.38,-0.83,1.27
9.668,-1.06,-0.55,-0.85,1.46
9.678,-1.10,-0.59,-0.92,1.55
9.688,-0.95,-0.52,-1.06,1.52
9.698,-0.58,-0.36,-1.26,1.43
9.708,-0.11,-0.18,-1.41,1.43
9.718,0.22,0.04,-1.39,1.41
9.728,0.21,0.16,-1.06,1.09
9.738,0.10,0.19,-0.26,0.34
9.748,0.06,0.12,0.81,0.82
9.758,0.03,0.03,1.63,1.64
9.768,-0.04,-0.00,2.02,2.02
9.778,-0.09,-0.04,1.92,1.92
9.788,-0.07,-0.06,1.53,1.53
9.798,0.07,-0.05,1.08,1.09
9.809,0.26,-0.10,0.57,0.63
9.818,0.35,-0.14,0.15,0.40
9.828,0.26,-0.15,-0.13,0.33
9.838,0.12,-0.11,-0.25,0.30
9.848,-0.02,-0.09,-0.35,0.36
9.858,-0.15,-0.08,-0.44,0.47
9.869,-0.31,-0.06,-0.37,0.49
9.879,-0.39,-0.08,-0.13,0.41
9.888,-0.37,-0.12,0.09,0.40
9.898,-0.31,-0.15,0.21,0.40
9.908,-0.13,-0.11,0.16,0.24
9.919,0.11,-0.06,0.13,0.18
9.929,0.36,0.01,0.10,0.37
9.939,0.49,0.02,0.04,0.49
9.948,0.52,0.04,0.07,0.53
9.959,0.49,0.06,0.12,0.51
9.969,0.39,0.06,0.15,0.42
9.979,0.14,0.05,0.24,0.29
9.989,-0.09,-0.15,0.45,0.48
9.999,0.03,-0.67,0.27,0.73
10.009,-0.08,-0.44,-0.93,1.04
10.019,-0.42,0.50,-1.37,1.52
10.029,-0.69,1.09,-0.50,1.39
10.039,-0.14,0.55,0.99,1.14
10.049,0.60,-0.47,1.90,2.05
10.059,0.66,-0.98,1.37,1.81
10.069,0.03,-0.48,-0.13,0.50
10.079,-0.65,0.33,-1.09,1.31
10.089,-0.73,0.61,-0.94,1.34
10.099,-0.34,0.25,-0.25,0.49
10.109,0.05,-0.23,0.19,0.30
10.119,0.02,-0.38,-0.01,0.38
10.129,-0.25,-0.18,-0.52,0.60
10.139,-0.46,-0.02,-0.75,0.89
10.149,-0.39,-0.11,-0.63,0.75
10.159,-0.27,-0.27,-0.55,0.67
10.169,-0.36,-0.30,-0.52,0.70
10.179,-0.49,-0.27,-0.32,0.64
10.189,-0.42,-0.28,-0.17,0.54
10.199,-0.26,-0.25,-0.13,0.39
10.209,-0.15,-0.09,0.01,0.18
10.219,-0.10,0.05,0.18,0.21
10.229,0.03,0.15,0.29,0.33
10.239,0.12,0.17,0.36,0.42
10.249,0.13,0.14,0.47,0.51
10.259,0.15,0.11,0.53,0.57
10.269,0.12,0.14,0.59,0.62
10.279,0.10,0.13,0.65,0.67
10.289,0.08,0.07,0.64,0.65
10.299,0.05,-0.00,0.55,0.55
10.309,-0.07,-0.04,0.46,0.47
10.319,-0.17,-0.05,0.34,0.38
10.329,-0.19,-0.06,0.19,0.28
10.339,-0.26,-0.09,0.13,0.30
10.349,-0.24,-0.24,0.06,0.35
10.359,-0.25,-0.44,-0.02,0.51
10.369,-0.29,-0.53,-0.12,0.62
10.379,-0.30,-0.55,-0.24,0.67
10.389,-0.34,-0.40,-0.45,0.70
10.399,-0.27,-0.28,-0.67,0.78
10.409,-0.13,-0.26,-0.87,0.92
10.419,-0.06,-0.22,-0.94,0.97
10.429,-0.01,-0.17,-0.88,0.89
10.439,0.05,-0.11,-0.64,0.65
10.449,0.09,-0.04,-0.35,0.36
10.459,0.12,-0.02,-0.01,0.12
10.469,0.15,-0.05,0.28,0.32
10.479,0.14,-0.01,0.58,0.60
10.489,0.18,0.04,0.80,0.82
10.499,0.26,0.09,0.86,0.91
10.509,0.31,0.14,0.83,0.89
10.519,0.38,0.16,0.62,0.74
10.529,0.40,0.19,0.30,0.54
10.539,0.35,0.22,-0.05,0.42
10.549,0.31,0.22,-0.35,0.52
10.559,0.24,0.19,-0.52,0.60
10.569,0.10,0.14,-0.58,0.61
10.579,-0.07,0.06,-0.55,0.56
10.589,-0.14,-0.03,-0.43,0.45
10.599,-0.21,-0.08,-0.21,0.31
10.609,-0.21,-0.12,0.01,0.24
10.619,-0.12,-0.15,0.15,0.24
10.629,-0.01,-0.15,0.17,0.23
10.639,0.04,-0.10,0.20,0.23
10.649,0.05,-0.08,0.22,0.24
10.659,0.01,-0.07,0.19,0.20
10.669,-0.02,-0.09,0.10,0.14
10.679,-0.09,-0.11,-0.10,0.17
10.689,-0.04,-0.13,-0.40,0.42
10.699,0.00,-0.17,-0.70,0.72
10.709,-0.03,-0.18,-0.73,0.75
10.719,-0.02,-0.14,-0.55,0.57
10.729,-0.06,-0.12,-0.24,0.28
10.739,-0.10,-0.08,0.18,0.22
10.749,0.02,0.01,0.66,0.66
10.759,0.25,0.13,1.05,1.09
10.769,0.44,0.30,1.20,1.31
10.779,0.59,0.31,1.13,1.31
10.789,0.53,0.10,1.04,1.18
10.799,0.39,-0.02,0.50,0.63
10.809,0.12,0.11,-0.04,0.17
10.819,-0.24,0.16,0.10,0.31
10.829,-0.34,-0.04,0.30,0.46
10.839,-0.41,-0.18,0.17,0.48
10.849,-0.62,-0.21,0.01,0.65
10.859,-0.83,-0.22,-0.12,0.87
10.869,-0.92,-0.28,-0.27,1.00
10.879,-0.89,-0.35,-0.35,1.02
10.889,-0.82,-0.40,-0.35,0.98
10.899,-0.63,-0.39,-0.32,0.81
10.909,-0.42,-0.34,-0.22,0.58
10.919,-0.20,-0.26,-0.06,0.33
10.929,-0.01,-0.18,0.09,0.20
10.939,0.12,-0.09,0.07,0.17
10.949,0.16,0.04,0.07,0.19
10.959,0.21,0.06,0.21,0.30
10.969,0.23,-0.01,0.29,0.38
10.979,0.25,-0.07,0.22,0.34
10.989,0.23,-0.11,0.07,0.26
10.999,0.19,-0.06,0.07,0.21
11.009,0.13,-0.01,0.19,0.23
11.019,0.24,-0.04,0.17,0.29
11.029,0.33,-0.05,0.02,0.34
11.039,0.40,-0.03,-0.09,0.41
11.049,0.44,-0.02,-0.14,0.46
11.059,0.47,-0.04,0.00,0.48
11.069,0.44,-0.10,0.10,0.46
11.079,0.31,-0.10,0.07,0.34
11.089,0.14,-0.09,0.01,0.17
11.099,0.03,-0.19,-0.07,0.20
11.109,-0.00,-0.13,-0.49,0.51
11.119,-0.20,0.12,-0.75,0.78
11.129,-0.36,0.23,-0.25,0.49
11.139,-0.30,0.04,0.26,0.40
11.149,-0.25,-0.02,0.34,0.42
11.159,-0.26,0.12,0.21,0.35
11.169,-0.26,0.17,0.03,0.32
11.179,-0.16,0.16,-0.16,0.28
11.189,-0.10,0.17,-0.40,0.45
11.199,-0.11,0.19,-0.61,0.65
11.209,-0.15,0.15,-0.58,0.62
11.220,-0.13,-0.03,-0.44,0.46
11.229,-0.09,-0.17,-0.25,0.32
11.240,-0.08,-0.25,-0.12,0.29
11.249,-0.02,-0.24,-0.07,0.25
11.260,0.09,-0.19,-0.03,0.21
11.270,0.26,-0.12,-0.05,0.29
11.279,0.41,-0.06,-0.11,0.43
11.289,0.37,-0.02,-0.21,0.43
11.299,0.20,-0.04,-0.07,0.21
11.310,0.12,-0.14,-0.09,0.20
11.320,0.05,-0.19,-0.11,0.23
11.330,-0.03,-0.15,-0.00,0.16
11.340,-0.15,-0.10,0.29,0.35
11.350,-0.33,-0.10,0.67,0.76
11.360,-0.43,-0.14,0.94,1.04
11.369,-0.41,-0.19,1.00,1.10
11.380,-0.37,-0.19,0.99,1.07
11.390,-0.28,-0.11,0.91,0.96
11.399,-0.16,-0.05,0.81,0.83
11.410,0.01,-0.03,0.59,0.59
11.420,0.09,-0.02,0.25,0.27
11.430,0.08,0.03,-0.06,0.10
11.440,-0.08,0.06,-0.16,0.19
11.450,-0.26,0.06,-0.11,0.29
11.460,-0.45,0.00,-0.06,0.46
11.470,-0.50,-0.06,0.02,0.51
11.480,-0.44,-0.04,0.17,0.48
11.490,-0.30,0.06,0.25,0.40
11.500,-0.25,0.22,0.26,0.42
11.510,-0.32,0.23,0.25,0.46
11.520,-0.48,0.13,0.18,0.53
11.530,-0.51,0.03,-0.02,0.52
11.540,-0.54,-0.00,-0.36,0.65
11.550,-0.47,0.01,-0.56,0.73
11.560,-0.22,-0.18,-0.53,0.60
11.570,-0.12,-0.21,-0.35,0.43
11.580,-0.31,0.01,-0.05,0.32
11.590,-0.48,0.22,0.26,0.59
11.600,-0.55,0.25,0.59,0.84
11.610,-0.34,0.02,0.70,0.78
11.620,0.04,-0.28,0.41,0.50
11.630,0.38,-0.53,-0.12,0.66
11.640,0.72,-0.50,-0.54,1.03
11.650,0.65,-0.23,-0.60,0.91
11.660,0.61,0.01,-0.25,0.66
11.670,0.68,0.03,0.21,0.71
11.680,0.82,0.02,0.64,1.04
11.690,1.03,0.09,0.77,1.29
11.700,0.89,0.15,0.81,1.21
11.710,0.53,0.18,0.77,0.95
11.720,0.40,0.12,0.42,0.59
11.730,0.53,0.02,-0.22,0.58
11.740,0.73,-0.03,-0.91,1.17
11.750,0.89,0.03,-1.49,1.73
11.760,0.79,0.09,-1.79,1.96
11.770,0.31,-0.05,-1.68,1.71
11.780,-0.30,-0.32,-1.29,1.37
11.790,-0.79,-0.59,-0.79,1.26
11.800,-1.08,-0.68,-0.31,1.31
11.810,-1.20,-0.78,-0.06,1.43
11.820,-1.17,-0.92,0.03,1.49
11.830,-1.10,-0.98,0.16,1.48
11.840,-1.05,-0.92,0.31,1.44
11.850,-1.01,-0.78,0.42,1.34
11.860,-0.85,-0.54,0.40,1.08
11.870,-0.61,-0.23,0.33,0.73
11.880,-0.20,0.09,0.29,0.36
11.890,0.50,0.43,0.37,0.76
11.900,1.02,0.47,0.47,1.22
11.910,1.03,0.10,0.52,1.15
11.920,0.73,-0.06,1.02,1.26
11.930,0.13,0.05,1.62,1.63
11.940,-0.30,0.09,1.77,1.80
11.950,-0.45,-0.12,1.61,1.68
11.960,-0.54,-0.38,1.44,1.58
11.970,-0.58,-0.58,1.18,1.44
11.980,-0.43,-0.55,0.72,1.00
11.990,0.06,-0.23,0.02,0.24
12.000,0.47,0.13,-0.59,0.77
12.010,0.51,0.29,-0.88,1.05
12.020,-0.10,0.11,-0.51,0.53
12.030,-0.44,-0.12,-0.13,0.47
12.040,-0.76,-0.30,0.23,0.85
12.050,-0.95,-0.31,0.38,1.07
12.060,-0.96,-0.20,0.36,1.05
12.070,-0.54,-0.03,0.12,0.55
12.080,-0.03,0.06,-0.44,0.44
12.090,0.29,0.15,-1.00,1.05
12.100,0.42,0.21,-1.47,1.54
12.110,0.24,0.14,-1.65,1.67
12.120,-0.21,-0.02,-1.43,1.44
12.130,-0.37,-0.08,-1.08,1.15
12.140,-0.12,0.03,-0.79,0.80
12.150,0.24,0.08,-0.74,0.78
12.160,0.34,-0.07,-0.74,0.81
12.170,0.34,-0.21,-0.73,0.84
12.180,0.37,-0.27,-0.76,0.89
12.190,0.39,-0.31,-0.74,0.89
12.200,0.33,-0.32,-0.19,0.50
12.210,0.34,-0.13,0.30,0.47
12.221,-0.20,0.03,0.71,0.73
12.230,-0.71,-0.14,1.24,1.43
12.240,-0.72,-0.60,1.37,1.66
12.250,-0.43,-0.97,1.25,1.64
12.261,-0.20,-1.00,1.02,1.44
12.270,-0.17,-0.90,0.62,1.11
12.280,-0.20,-0.63,0.32,0.73
12.290,-0.19,-0.17,0.21,0.33
12.300,-0.15,0.19,0.20,0.31
12.310,-0.17,0.30,0.48,0.59
12.320,-0.13,0.22,0.62,0.67
12.330,0.02,0.02,0.56,0.56
12.340,0.09,0.02,0.44,0.45
12.350,0.05,0.10,0.30,0.32
12.360,0.04,0.09,0.17,0.20
12.370,0.07,0.22,0.10,0.25
12.380,0.13,0.47,-0.04,0.49
12.390,0.16,0.52,-0.13,0.56
12.400,0.19,0.35,-0.14,0.42
12.410,0.23,0.13,-0.30,0.41
12.420,0.17,0.02,-0.65,0.67
12.430,0.01,-0.07,-0.91,0.92
12.440,-0.09,-0.21,-0.95,0.97
12.450,-0.11,-0.33,-0.82,0.89
12.460,-0.03,-0.30,-0.62,0.69
12.470,0.11,-0.14,-0.39,0.43
12.480,0.26,0.02,-0.06,0.27
12.490,0.46,0.21,0.20,0.55
12.500,0.69,0.29,0.32,0.82
12.510,0.79,0.28,0.42,0.94
12.520,0.70,0.32,0.50,0.92
12.530,0.47,0.28,0.52,0.76
12.540,0.29,0.22,0.37,0.52
12.550,0.17,0.11,0.10,0.22
12.561,0.08,-0.00,-0.15,0.17
12.570,0.09,0.03,-0.38,0.39
12.580,0.12,0.01,-0.65,0.66
12.590,-0.02,-0.14,-0.75,0.76
12.600,-0.36,-0.24,-0.65,0.78
12.610,-0.68,-0.30,-0.49,0.88
12.620,-0.85,-0.34,-0.31,0.97
12.630,-0.80,-0.33,0.02,0.87
12.640,-0.61,-0.25,0.32,0.73
12.650,-0.37,-0.20,0.31,0.52
12.661,-0.15,0.00,0.07,0.17
12.670,-0.02,-0.10,-0.14,0.17
12.681,-0.04,-0.09,-0.01,0.09
12.691,-0.08,0.06,0.27,0.28
12.701,-0.11,0.13,0.52,0.55
12.711,-0.12,0.06,0.81,0.82
12.721,-0.12,-0.04,0.94,0.95
12.731,-0.03,-0.09,0.80,0.81
12.741,0.03,-0.08,0.46,0.47
12.751,-0.00,-0.08,0.18,0.20
12.761,-0.11,-0.16,0.02,0.19
12.771,-0.17,-0.28,-0.14,0.36
12.781,-0.22,-0.33,-0.29,0.49
12.791,-0.24,-0.29,-0.38,0.54
12.801,-0.23,-0.21,-0.33,0.45
12.811,-0.15,-0.16,-0.16,0.27
12.821,-0.06,-0.15,-0.01,0.16
12.831,0.06,-0.10,0.09,0.15
12.841,0.14,-0.07,0.09,0.18
12.851,0.14,-0.04,0.10,0.18
12.861,0.09,-0.01,0.17,0.20
12.871,-0.01,0.01,0.32,0.32
12.881,-0.02,-0.04,0.41,0.41
12.891,-0.00,-0.09,0.39,0.40
12.901,0.08,-0.08,0.32,0.34
12.911,0.18,-0.03,0.13,0.23
12.921,0.20,0.02,-0.08,0.21
12.931,0.12,0.01,-0.19,0.22
12.941,0.05,0.01,-0.23,0.24
12.951,-0.02,-0.02,-0.25,0.25
12.961,-0.10,-0.04,-0.18,0.21
12.971,-0.20,-0.07,-0.10,0.23
12.981,-0.19,-0.10,-0.09,0.23
12.991,-0.11,-0.05,-0.10,0.16
13.001,-0.02,-0.04,-0.04,0.06
13.011,0.02,-0.09,0.02,0.10
13.021,0.03,-0.14,0.13,0.20
13.031,0.03,-0.17,0.21,0.27
13.041,-0.02,-0.18,0.24,0.31
13.051,-0.04,-0.19,0.23,0.31
13.061,-0.06,-0.19,0.26,0.32
13.071,-0.08,-0.15,0.33,0.37
13.081,-0.05,-0.12,0.30,0.33
13.091,0.01,-0.07,0.20,0.21
13.101,0.09,0.00,0.03,0.10
13.111,0.16,0.09,-0.05,0.19
13.121,0.16,0.14,-0.05,0.22
13.131,0.21,0.03,-0.22,0.30
13.141,0.19,-0.01,-0.05,0.20
13.151,-0.11,0.11,0.34,0.38
13.161,-0.22,-0.12,0.41,0.49
13.171,-0.21,-0.45,0.31,0.59
13.181,-0.30,-0.50,0.06,0.59
13.191,-0.33,-0.28,-0.09,0.45
13.201,-0.30,-0.10,-0.12,0.34
13.211,-0.15,-0.13,-0.13,0.24
13.221,0.03,-0.20,-0.07,0.22
13.231,0.04,-0.16,0.08,0.18
13.241,-0.06,-0.10,0.19,0.22
13.251,-0.15,-0.13,0.16,0.26
13.261,-0.22,-0.16,0.11,0.30
13.271,-0.28,-0.11,0.06,0.30
13.281,-0.25,-0.08,-0.07,0.27
13.291,-0.14,-0.06,-0.22,0.27
13.301,-0.04,-0.00,-0.38,0.39
13.311,0.10,0.05,-0.53,0.54
13.321,0.19,0.09,-0.60,0.64
13.331,0.24,0.13,-0.49,0.57
13.341,0.22,0.14,-0.36,0.45
13.351,0.24,0.09,-0.28,0.38
13.361,0.27,0.09,-0.19,0.34
13.371,0.26,0.17,-0.10,0.33
13.381,0.26,0.18,-0.06,0.32
13.391,0.24,0.15,-0.02,0.28
13.401,0.14,0.13,0.19,0.27
13.411,-0.02,0.07,0.34,0.35
13.421,-0.10,-0.08,0.36,0.38
13.431,-0.23,-0.13,0.35,0.44
13.441,-0.40,-0.19,0.29,0.53
13.451,-0.52,-0.29,0.16,0.61
13.461,-0.55,-0.36,0.05,0.65
13.471,-0.55,-0.38,-0.05,0.67
13.481,-0.54,-0.39,-0.13,0.67
13.491,-0.51,-0.33,-0.10,0.62
13.501,-0.48,-0.27,-0.03,0.55
13.511,-0.36,-0.23,0.04,0.43
13.521,-0.20,-0.18,0.09,0.29
13.531,-0.09,-0.12,0.14,0.21
13.541,0.06,-0.09,0.12,0.16
13.551,0.21,-0.05,0.13,0.26
13.561,0.28,0.02,0.17,0.33
13.571,0.31,0.01,0.24,0.39
13.581,0.33,-0.02,0.25,0.41
13.591,0.33,-0.03,0.28,0.44
13.601,0.33,-0.03,0.29,0.44
13.611,0.29,-0.04,0.17,0.34
13.621,0.23,0.01,0.03,0.23
13.631,0.12,0.08,-0.07,0.16
13.641,-0.05,0.07,-0.01,0.09
13.651,-0.19,0.03,0.11,0.22
13.661,-0.24,-0.02,0.34,0.42
13.671,-0.25,-0.13,0.60,0.67
13.681,-0.26,-0.30,0.77,0.86
13.691,-0.19,-0.48,0.66,0.84
13.701,-0.14,-0.50,0.34,0.62
13.711,-0.24,-0.40,-0.00,0.46
13.721,-0.46,-0.21,-0.23,0.56
13.731,-0.69,-0.02,-0.32,0.76
13.741,-0.81,0.10,-0.40,0.90
13.751,-0.64,0.21,-0.55,0.86
13.761,-0.39,0.25,-0.84,0.96
13.771,-0.22,0.33,-0.79,0.89
13.781,-0.04,0.20,-0.60,0.63
13.791,0.14,-0.09,-0.66,0.69
13.801,0.22,-0.09,-0.66,0.70
13.811,0.28,0.04,-0.57,0.64
13.821,0.38,0.12,-0.47,0.62
13.831,0.42,0.18,-0.37,0.59
13.841,0.38,0.19,-0.23,0.49
13.851,0.33,0.25,-0.07,0.42
13.862,0.31,0.28,0.15,0.44
13.871,0.32,0.14,0.37,0.51
13.881,0.28,-0.05,0.43,0.51
13.891,0.14,-0.17,0.38,0.44
13.901,-0.07,-0.23,0.32,0.40
13.912,-0.20,-0.19,0.25,0.37
13.921,-0.15,-0.13,0.11,0.22
13.931,-0.02,-0.08,-0.02,0.09
13.941,0.02,-0.00,-0.06,0.06
13.951,0.03,0.05,-0.07,0.09
13.961,0.08,-0.04,-0.08,0.12
13.972,0.03,-0.04,-0.11,0.12
13.982,-0.02,-0.06,-0.13,0.15
13.991,-0.00,-0.17,-0.07,0.19
14.002,-0.04,-0.22,0.11,0.25
14.012,-0.14,-0.10,0.27,0.32
14.022,-0.21,-0.01,0.32,0.39
14.032,-0.20,-0.01,0.29,0.35
14.042,-0.20,-0.06,0.19,0.28
14.052,-0.18,-0.08,0.07,0.21
14.062,-0.20,-0.10,-0.07,0.24
14.072,-0.13,-0.07,-0.25,0.29
14.082,-0.05,-0.05,-0.35,0.36
14.092,0.06,-0.06,-0.26,0.27
14.102,0.03,-0.09,-0.09,0.13
14.112,-0.14,-0.04,0.11,0.18
14.122,-0.26,0.01,0.21,0.33
14.132,-0.26,-0.07,0.22,0.35
14.142,-0.22,-0.07,0.19,0.30
14.152,-0.10,-0.03,0.08,0.13
14.162,0.07,-0.01,-0.00,0.07
14.172,0.20,-0.02,-0.04,0.21
14.182,0.22,0.07,-0.07,0.24
14.192,0.18,0.18,-0.13,0.28
14.202,0.16,0.13,-0.19,0.28
14.212,0.18,-0.01,-0.15,0.23
14.222,0.16,-0.13,-0.15,0.25
14.232,0.12,-0.16,-0.17,0.26
14.242,0.10,-0.13,-0.13,0.21
14.252,0.10,-0.09,-0.04,0.14
14.262,0.17,-0.04,-0.00,0.17
14.272,0.23,0.04,0.01,0.24
14.282,0.19,0.10,0.11,0.24
14.292,0.14,0.04,0.24,0.29
14.302,0.05,-0.06,0.29,0.30
14.312,-0.03,-0.07,0.28,0.29
14.322,-0.01,-0.04,0.21,0.21
14.332,0.01,-0.07,0.06,0.09
14.342,0.01,-0.13,-0.01,0.13
14.352,0.00,-0.16,-0.01,0.16
14.362,0.07,-0.08,-0.02,0.11
14.372,0.17,-0.06,0.06,0.19
14.382,0.18,-0.07,0.24,0.31
14.392,0.13,-0.06,0.42,0.44
14.402,0.11,-0.04,0.49,0.50
14.412,0.14,-0.16,0.52,0.56
14.422,0.02,-0.24,0.49,0.54
14.432,-0.15,-0.23,0.47,0.54
14.442,-0.22,-0.25,0.43,0.54
14.452,-0.13,-0.20,0.32,0.40
14.462,0.12,0.02,0.22,0.25
14.472,0.52,0.22,0.15,0.58
14.482,0.80,0.15,0.12,0.82
14.492,0.71,-0.03,0.23,0.75
14.502,0.49,-0.24,0.59,0.80
14.512,0.23,-0.35,0.89,0.99
14.522,0.18,-0.26,0.80,0.86
14.532,0.40,-0.08,0.38,0.55
14.542,0.66,-0.08,-0.07,0.67
14.552,0.82,-0.23,-0.23,0.89
14.562,0.72,-0.30,-0.02,0.78
14.572,0.43,-0.23,0.41,0.64
14.582,-0.03,-0.18,0.86,0.87
14.592,-0.57,-0.23,1.02,1.20
14.602,-0.86,-0.21,0.90,1.26
14.612,-0.83,-0.28,0.60,1.06
14.622,-0.80,-0.48,0.14,0.94
14.632,-0.78,-0.42,-0.41,0.98
14.642,-0.61,-0.22,-0.87,1.08
14.652,-0.51,-0.09,-1.15,1.26
14.662,-0.49,-0.09,-1.15,1.25
14.672,-0.59,-0.13,-0.73,0.95
14.682,-0.78,-0.15,-0.39,0.88
14.692,-0.98,-0.27,-0.12,1.03
14.702,-1.11,-0.29,0.04,1.14
14.712,-0.90,-0.19,0.04,0.92
14.722,-0.64,-0.14,-0.11,0.66
14.732,-0.44,-0.03,-0.28,0.52
14.742,-0.28,0.12,-0.34,0.45
14.752,-0.02,0.01,-0.47,0.47
14.762,0.33,-0.10,-0.60,0.69
14.772,0.63,-0.09,-0.64,0.90
14.782,0.67,-0.00,-0.45,0.81
14.792,0.47,0.10,-0.21,0.52
14.802,0.16,0.08,0.02,0.18
14.812,-0.12,-0.06,0.19,0.23
14.822,-0.19,-0.04,0.07,0.20
14.832,-0.18,-0.09,-0.01,0.20
14.842,-0.44,-0.34,-0.06,0.56
14.852,-0.62,-0.40,-0.05,0.74
14.862,-0.57,-0.28,0.11,0.64
14.872,-0.40,-0.10,0.22,0.47
14.882,-0.20,-0.04,0.30,0.36
14.892,0.13,-0.02,0.36,0.38
14.902,0.42,0.11,0.35,0.56
14.912,0.53,0.23,0.29,0.65
14.922,0.52,0.18,0.16,0.57
14.932,0.33,-0.03,-0.02,0.33
14.942,0.06,-0.16,-0.19,0.25
14.952,-0.17,-0.12,-0.25,0.33
14.962,-0.29,-0.08,-0.34,0.46
14.972,-0.33,-0.13,-0.39,0.53
14.982,-0.31,-0.19,-0.31,0.48
14.992,-0.12,-0.12,-0.22,0.28
15.002,0.07,-0.02,-0.16,0.18
15.012,0.26,0.03,-0.05,0.26
15.022,0.30,0.06,0.13,0.34
15.032,0.23,0.04,0.21,0.32
15.042,0.16,-0.02,0.21,0.27
15.053,0.05,-0.05,0.14,0.15
15.063,-0.10,-0.10,0.06,0.15
15.072,-0.26,-0.10,0.13,0.31
15.082,-0.32,-0.18,0.19,0.41
15.092,-0.24,-0.18,0.17,0.34
15.102,0.05,-0.09,0.09,0.14
15.112,0.36,-0.03,-0.03,0.36
15.122,0.47,-0.04,-0.14,0.49
15.132,0.30,-0.09,-0.15,0.35
15.142,0.08,-0.14,-0.12,0.20
15.153,-0.08,-0.10,-0.11,0.17
15.163,-0.18,-0.09,-0.08,0.22
15.172,-0.23,-0.17,-0.01,0.28
15.182,-0.15,-0.16,0.07,0.23
15.192,-0.02,-0.05,0.16,0.17
15.202,0.11,0.01,0.25,0.27
15.212,0.20,-0.06,0.23,0.31
15.222,0.19,-0.03,0.19,0.27
15.232,0.10,0.06,0.30,0.32
15.242,0.05,0.01,0.29,0.29
15.252,0.09,-0.02,0.23,0.25
15.263,0.12,-0.02,0.22,0.25
15.272,0.25,-0.02,0.21,0.33
15.282,0.43,-0.05,0.17,0.46
15.292,0.74,-0.18,-0.06,0.76
15.303,0.67,-0.31,-0.34,0.81
15.312,0.49,-0.15,-0.16,0.54
15.323,0.41,-0.17,-0.01,0.45
15.333,0.31,-0.21,0.01,0.38
15.343,0.31,-0.13,0.03,0.33
15.353,0.43,-0.08,0.12,0.45
15.363,0.57,-0.05,0.13,0.59
15.372,0.54,-0.01,0.09,0.55
15.383,0.42,-0.02,-0.04,0.42
15.392,0.32,-0.09,-0.10,0.34
15.403,0.21,-0.11,-0.13,0.27
15.413,0.07,-0.15,-0.14,0.22
15.423,0.02,-0.21,-0.22,0.30
15.433,-0.06,-0.21,-0.35,0.41
15.443,-0.16,-0.16,-0.37,0.44
15.453,-0.14,-0.12,-0.39,0.43
15.463,-0.06,-0.12,-0.46,0.48
15.473,-0.07,-0.13,-0.47,0.50
15.483,-0.18,-0.08,-0.19,0.28
15.493,-0.31,-0.04,0.16,0.35
15.503,-0.47,-0.04,0.32,0.57
15.513,-0.56,0.01,0.38,0.68
15.523,-0.60,-0.03,0.36,0.71
15.533,-0.66,-0.10,0.29,0.72
15.543,-0.55,-0.15,0.23,0.62
15.553,-0.35,-0.18,0.10,0.40
15.563,-0.29,-0.26,-0.09,0.40
15.573,-0.40,-0.34,-0.13,0.54
15.583,-0.33,-0.31,0.07,0.45
15.593,-0.05,-0.25,0.19,0.32
15.603,0.24,-0.06,0.09,0.27
15.613,0.43,0.02,0.12,0.45
15.623,0.53,-0.08,0.39,0.66
15.633,0.46,-0.14,0.56,0.74
15.643,0.32,-0.13,0.63,0.72
15.653,0.20,-0.19,0.65,0.70
15.663,0.04,-0.27,0.56,0.62
15.673,-0.17,-0.34,0.45,0.59
15.683,-0.37,-0.49,0.28,0.68
15.693,-0.55,-0.63,0.07,0.83
15.703,-0.59,-0.54,-0.06,0.80
15.713,-0.51,-0.36,-0.09,0.63
15.723,-0.37,-0.20,-0.04,0.42
15.733,-0.22,-0.14,-0.01,0.26
15.743,-0.18,-0.03,0.01,0.18
15.753,-0.20,0.16,0.03,0.26
15.763,-0.19,0.32,0.03,0.37
15.773,-0.07,0.34,0.03,0.35
15.783,-0.04,0.36,-0.03,0.36
15.793,-0.08,0.44,-0.05,0.45
15.803,-0.12,0.44,-0.14,0.48
15.813,-0.22,0.56,-0.27,0.66
15.823,-0.28,0.68,-0.21,0.77
15.833,-0.42,0.43,-0.27,0.66
15.843,-0.77,0.10,-0.77,1.09
15.853,-1.03,0.03,-1.29,1.65
15.863,-0.99,0.00,-1.44,1.75
15.873,-0.79,-0.02,-1.21,1.45
15.883,-0.54,-0.01,-0.84,0.99
15.893,-0.26,-0.03,-0.53,0.60
15.903,-0.02,-0.07,-0.35,0.36
15.913,0.22,-0.13,-0.24,0.35
15.923,0.43,-0.12,-0.12,0.46
15.933,0.59,-0.06,0.03,0.59
15.943,0.69,-0.02,0.17,0.71
15.953,0.70,0.03,0.35,0.78
15.963,0.60,0.01,0.49,0.78
15.973,0.39,-0.07,0.60,0.72
15.983,0.14,-0.08,0.65,0.67
15.993,-0.08,-0.09,0.70,0.71
16.003,-0.29,-0.10,0.69,0.76
16.013,-0.37,-0.08,0.62,0.72
16.023,-0.34,-0.09,0.51,0.62
16.033,-0.18,-0.04,0.40,0.44
16.043,0.05,-0.03,0.30,0.30
16.053,0.19,-0.03,0.21,0.28
16.063,0.28,-0.04,0.07,0.29
16.073,0.29,-0.08,-0.12,0.32
16.083,0.24,-0.05,-0.28,0.37
16.093,0.16,-0.07,-0.32,0.37
16.103,0.11,-0.00,-0.32,0.34
16.113,0.07,-0.00,-0.30,0.31
16.123,0.05,-0.01,-0.24,0.24
16.133,-0.04,-0.04,-0.10,0.11
16.143,-0.17,-0.04,0.01,0.17
16.153,-0.26,-0.03,0.07,0.27
16.163,-0.24,-0.04,0.12,0.28
16.173,-0.17,0.01,0.16,0.23
16.183,-0.04,-0.04,0.18,0.19
16.193,0.03,-0.07,0.23,0.24
16.203,0.08,-0.06,0.22,0.24
16.213,0.07,-0.08,0.20,0.22
16.223,0.03,-0.11,0.22,0.24
16.233,0.05,-0.10,0.16,0.20
16.243,0.07,-0.07,0.04,0.11
16.253,0.14,-0.06,-0.05,0.16
16.263,0.15,-0.08,-0.08,0.19
16.273,0.17,-0.05,-0.13,0.22
16.283,0.16,-0.08,-0.12,0.22
16.293,0.13,-0.10,-0.09,0.18
16.303,0.04,-0.02,-0.07,0.08
16.313,0.04,-0.08,-0.04,0.09
16.323,0.02,-0.08,0.02,0.09
16.333,-0.06,-0.01,-0.01,0.06
16.343,-0.10,0.02,-0.07,0.12
16.353,-0.15,-0.03,-0.05,0.16
16.363,-0.21,0.00,-0.11,0.24
16.373,-0.22,-0.00,-0.16,0.27
16.383,-0.17,0.03,-0.18,0.25
16.393,-0.12,-0.01,-0.18,0.21
16.403,-0.05,-0.05,-0.13,0.15
16.413,-0.03,-0.06,-0.08,0.10
16.423,-0.02,-0.02,-0.06,0.07
16.433,0.05,0.04,-0.07,0.10
16.443,0.12,-0.06,-0.02,0.14
16.453,0.03,-0.12,0.01,0.12
16.463,-0.12,-0.03,-0.15,0.19
16.473,-0.09,-0.16,-0.05,0.19
16.483,-0.12,-0.25,0.14,0.31
16.493,-0.21,-0.16,0.00,0.26
16.503,-0.17,-0.15,-0.09,0.25
16.513,0.04,0.01,-0.06,0.08
16.523,0.23,0.02,0.01,0.23
16.533,0.28,0.01,0.03,0.28
16.544,0.24,0.03,-0.02,0.24
16.553,0.23,0.06,-0.11,0.27
16.563,0.25,0.04,-0.06,0.26
16.573,0.18,0.03,0.05,0.19
16.583,0.08,0.06,0.03,0.11
16.593,-0.00,0.05,0.04,0.06
16.603,-0.04,0.04,0.05,0.08
16.613,-0.14,0.05,-0.01,0.14
16.623,-0.21,0.01,-0.08,0.23
16.633,-0.20,-0.07,-0.12,0.24
16.643,-0.21,-0.10,-0.15,0.28
16.653,-0.20,-0.10,-0.16,0.28
16.663,-0.12,-0.08,-0.12,0.18
16.673,-0.04,-0.08,-0.02,0.09
16.683,-0.01,-0.07,0.08,0.10
16.693,-0.00,-0.07,0.22,0.23
16.704,-0.02,-0.05,0.29,0.30
16.713,0.00,-0.06,0.29,0.30
16.723,0.03,-0.04,0.19,0.20
16.734,0.06,-0.01,0.03,0.07
16.743,0.16,-0.06,-0.03,0.17
16.753,0.13,-0.08,-0.06,0.16
16.763,0.07,-0.07,-0.13,0.16
16.774,0.09,-0.04,-0.21,0.23
16.784,0.11,0.01,-0.27,0.29
16.794,0.10,-0.01,-0.26,0.28
16.804,0.07,-0.07,-0.11,0.15
16.813,-0.04,-0.02,-0.05,0.07
16.824,-0.11,-0.00,-0.00,0.11
16.834,-0.12,-0.08,0.08,0.17
16.844,-0.14,-0.04,0.01,0.15
16.854,-0.10,-0.03,-0.09,0.14
16.864,0.04,0.02,-0.09,0.10
16.874,0.16,0.01,-0.03,0.16
16.884,0.14,-0.06,0.02,0.15
16.894,0.03,-0.04,-0.02,0.05
16.904,-0.08,-0.03,-0.09,0.12
16.914,-0.12,-0.04,-0.11,0.17
16.924,-0.09,-0.04,-0.12,0.16
16.934,-0.04,-0.03,-0.09,0.11
16.944,0.01,0.01,-0.01,0.02
16.954,0.02,-0.02,0.03,0.04
16.964,-0.07,-0.06,0.07,0.11
16.974,-0.14,-0.04,0.06,0.15
16.984,-0.14,-0.06,0.07,0.17
16.994,-0.12,-0.07,0.11,0.18
17.004,-0.06,-0.07,0.08,0.13
17.014,0.03,-0.05,0.04,0.07
17.024,0.11,-0.07,-0.01,0.13
17.034,0.10,-0.09,-0.08,0.15
17.044,0.09,-0.09,-0.14,0.19
17.054,0.11,-0.05,-0.16,0.21
17.064,0.14,-0.04,-0.11,0.18
17.074,0.08,-0.01,-0.08,0.11
17.084,0.03,0.03,-0.08,0.09
17.094,-0.01,0.01,-0.04,0.04
17.104,-0.06,-0.04,0.00,0.08
17.114,-0.12,-0.09,-0.07,0.16
17.124,-0.17,-0.08,-0.15,0.24
17.134,-0.14,-0.08,-0.15,0.22
17.144,-0.07,-0.06,-0.10,0.13
17.154,-0.00,-0.05,-0.06,0.08
17.164,0.11,-0.03,0.02,0.12
17.174,0.20,0.02,0.07,0.21
17.184,0.26,-0.02,0.12,0.29
17.194,0.23,-0.05,0.13,0.27
17.204,0.10,-0.03,0.09,0.14
17.214,-0.04,-0.04,0.05,0.08
17.224,-0.16,-0.04,0.03,0.17
17.234,-0.20,-0.06,0.01,0.21
17.244,-0.09,-0.08,-0.05,0.13
17.254,0.01,-0.04,-0.07,0.08
17.264,0.18,-0.02,-0.10,0.20
17.274,0.38,-0.04,-0.13,0.41
17.284,0.37,-0.06,-0.06,0.37
17.294,0.20,-0.03,-0.04,0.21
17.304,0.04,-0.07,-0.08,0.11
17.314,-0.17,-0.08,0.01,0.19
17.324,-0.33,-0.07,0.12,0.35
17.334,-0.41,-0.05,0.13,0.44
17.344,-0.41,-0.04,0.13,0.43
17.354,-0.27,-0.01,0.09,0.29
17.364,-0.08,-0.01,-0.09,0.12
17.374,0.23,-0.02,-0.33,0.40
17.384,0.46,0.01,-0.37,0.58
17.394,0.51,0.02,-0.20,0.55
17.404,0.35,-0.00,0.01,0.35
17.414,0.06,-0.05,0.12,0.15
17.424,-0.20,-0.08,0.19,0.29
17.434,-0.42,-0.10,0.23,0.49
17.444,-0.54,-0.08,0.22,0.59
17.454,-0.50,-0.06,0.20,0.54
17.464,-0.36,-0.02,0.14,0.39
17.474,-0.16,0.03,0.02,0.16
17.484,0.08,0.02,-0.08,0.12
17.494,0.24,0.00,-0.14,0.28
17.504,0.27,0.01,-0.22,0.35
17.514,0.20,-0.02,-0.27,0.34
17.524,0.08,-0.06,-0.31,0.33
17.534,0.00,-0.08,-0.24,0.25
17.544,-0.05,-0.06,-0.14,0.16
17.554,-0.08,-0.05,-0.05,0.11
17.564,-0.03,-0.00,0.04,0.05
17.574,0.04,-0.08,0.18,0.20
17.584,0.06,-0.01,0.16,0.17
17.594,0.11,-0.09,0.11,0.17
17.604,0.07,-0.09,0.08,0.14
17.614,0.03,-0.05,0.01,0.06
17.624,0.04,-0.02,-0.09,0.10
17.634,0.01,-0.02,-0.13,0.13
17.644,-0.07,0.03,-0.11,0.13
17.654,-0.10,0.05,-0.10,0.15
17.664,-0.16,0.04,-0.11,0.20
17.674,-0.22,0.03,-0.09,0.24
17.684,-0.24,-0.00,-0.09,0.26
17.694,-0.24,-0.04,-0.11,0.27
17.704,-0.20,-0.03,-0.17,0.26
17.714,-0.12,-0.07,-0.20,0.24
17.724,-0.08,-0.08,-0.21,0.24
17.734,0.01,-0.07,-0.19,0.20
17.744,0.12,-0.05,-0.14,0.19
17.754,0.15,-0.04,-0.17,0.23
17.764,0.13,-0.05,-0.18,0.23
17.774,0.10,-0.06,-0.15,0.19
17.784,0.06,-0.06,-0.12,0.15
17.794,0.06,-0.06,-0.09,0.12
17.804,0.05,-0.04,-0.05,0.08
17.814,-0.00,-0.01,0.01,0.01
17.824,-0.04,-0.01,0.06,0.07
17.834,-0.06,0.02,0.06,0.09
17.844,-0.10,0.08,0.05,0.13
17.854,-0.10,0.03,0.14,0.17
17.864,-0.07,-0.01,0.24,0.25
17.874,-0.09,-0.04,0.21,0.23
17.884,-0.11,-0.08,0.16,0.21
17.894,-0.05,-0.05,0.07,0.10
17.904,0.02,-0.06,-0.01,0.07
17.914,0.11,-0.10,-0.10,0.18
17.924,0.15,-0.08,-0.15,0.23
17.934,0.23,-0.11,-0.13,0.29
17.944,0.26,-0.06,-0.11,0.29
17.954,0.17,0.00,-0.09,0.20
17.964,0.07,-0.02,-0.04,0.08
17.974,-0.10,-0.03,-0.04,0.11
17.984,-0.25,-0.03,-0.12,0.28
17.994,-0.30,-0.02,-0.23,0.38
18.004,-0.27,-0.01,-0.27,0.39
18.014,-0.17,-0.02,-0.31,0.35
18.024,-0.10,-0.02,-0.21,0.24
18.035,-0.03,0.06,-0.05,0.08
18.045,0.06,0.08,0.17,0.19
18.055,0.07,0.06,0.34,0.35
18.065,-0.01,0.03,0.32,0.32
18.075,-0.13,0.04,0.15,0.20
18.085,-0.24,-0.02,0.03,0.25
18.095,-0.30,-0.09,-0.06,0.32
18.105,-0.27,-0.10,-0.07,0.30
18.114,-0.16,-0.08,-0.03,0.18
18.125,0.01,-0.08,0.07,0.11
18.135,0.17,-0.12,0.11,0.24
18.145,0.26,-0.12,0.10,0.30
18.155,0.32,-0.11,0.07,0.35
18.165,0.30,-0.11,0.02,0.32
18.175,0.26,-0.07,-0.07,0.28
18.185,0.25,-0.02,-0.14,0.29
18.195,0.18,-0.02,-0.18,0.25
18.205,0.10,-0.03,-0.23,0.25
18.214,0.05,-0.02,-0.25,0.26
18.225,0.05,0.00,-0.18,0.19
18.235,0.08,0.02,-0.06,0.10
18.245,0.06,0.03,0.04,0.07
18.255,0.05,-0.02,0.01,0.06
18.265,-0.01,-0.05,-0.07,0.09
18.275,-0.06,-0.08,-0.12,0.16
18.285,-0.08,-0.12,-0.13,0.19
18.295,-0.14,-0.11,-0.12,0.22
18.305,-0.22,-0.07,-0.09,0.24
18.315,-0.27,-0.07,-0.03,0.28
18.325,-0.31,-0.12,0.10,0.34
18.335,-0.49,-0.40,0.21,0.67
18.345,-0.38,0.07,0.10,0.40
18.355,0.05,0.23,0.26,0.35
18.365,0.17,0.20,0.51,0.58
18.375,0.20,0.20,0.61,0.67
18.385,0.22,-0.00,0.62,0.66
18.395,0.11,-0.05,0.45,0.47
18.405,-0.02,-0.03,0.25,0.25
18.415,-0.06,-0.05,0.04,0.09
18.425,-0.07,-0.10,-0.17,0.21
18.435,-0.04,-0.08,-0.37,0.38
18.445,0.01,-0.07,-0.47,0.47
18.455,0.05,-0.04,-0.41,0.41
18.465,0.11,-0.06,-0.29,0.31
18.475,0.14,-0.05,-0.24,0.28
18.485,0.12,-0.07,-0.20,0.24
18.495,0.10,-0.06,-0.17,0.21
18.505,0.08,-0.06,-0.11,0.15
18.515,0.05,-0.08,-0.02,0.10
18.525,0.00,-0.09,0.01,0.09
18.535,-0.06,-0.09,0.00,0.11
18.545,-0.12,-0.08,0.07,0.16
18.555,-0.13,-0.06,0.13,0.19
18.565,-0.10,-0.05,0.15,0.19
18.575,-0.06,-0.04,0.16,0.17
18.585,-0.02,-0.04,0.15,0.16
18.595,0.03,-0.11,0.07,0.14
18.605,-0.15,-0.32,-0.04,0.35
18.615,-0.12,-0.12,-0.21,0.27
18.625,0.01,-0.11,-0.16,0.20
18.635,0.09,0.07,-0.09,0.15
18.645,0.10,0.20,0.03,0.23
18.655,0.08,0.14,0.17,0.23
18.665,-0.03,0.10,0.21,0.23
18.675,-0.19,0.05,0.16,0.25
18.685,-0.30,0.02,0.03,0.31
18.695,-0.32,0.02,-0.08,0.33
18.705,-0.31,-0.05,-0.04,0.32
18.715,-0.25,-0.10,-0.00,0.27
18.725,-0.14,-0.11,0.03,0.18
18.735,-0.02,-0.08,0.01,0.09
18.745,0.06,-0.08,-0.01,0.10
18.755,0.11,-0.10,-0.01,0.15
18.765,0.16,-0.06,0.05,0.17
18.775,0.17,-0.02,0.12,0.20
18.785,0.14,-0.01,0.17,0.22
18.795,0.10,-0.02,0.16,0.19
18.805,0.03,-0.01,0.11,0.11
18.815,0.01,-0.02,0.03,0.04
18.825,-0.01,-0.01,-0.03,0.03
18.835,-0.01,-0.04,-0.05,0.07
18.845,-0.00,-0.05,-0.04,0.06
18.855,0.03,-0.04,-0.04,0.06
18.865,0.05,-0.06,-0.07,0.10
18.875,0.09,-0.09,-0.07,0.15
18.885,0.09,-0.15,-0.09,0.20
18.895,0.07,-0.14,-0.12,0.19
18.905,-0.00,-0.13,-0.14,0.19
18.915,-0.08,-0.12,-0.11,0.18
18.925,-0.13,-0.09,-0.08,0.18
18.935,-0.21,-0.09,-0.05,0.23
18.945,-0.26,-0.03,-0.02,0.26
18.955,-0.24,0.02,-0.10,0.26
18.965,-0.26,0.06,-0.19,0.33
18.975,-0.31,0.09,-0.30,0.45
18.985,-0.41,0.05,-0.48,0.63
18.995,-0.51,-0.12,-0.64,0.83
19.005,-0.68,-0.33,-0.70,1.02
19.015,-1.11,-1.06,-0.85,1.76
19.025,-1.50,-1.02,-0.97,2.05
19.035,-1.10,0.05,-0.89,1.41
19.045,-0.52,0.41,-0.78,1.03
19.056,0.18,0.51,-0.41,0.68
19.065,0.56,0.51,-0.18,0.78
19.075,0.92,0.45,-0.22,1.05
19.085,1.22,0.33,-0.26,1.29
19.095,1.42,0.22,-0.09,1.44
19.105,1.49,0.20,0.15,1.51
19.115,1.51,0.22,0.36,1.57
19.125,1.37,0.33,0.46,1.49
19.135,1.10,0.39,0.65,1.34
19.145,0.91,0.36,1.04,1.43
19.155,0.82,0.28,1.27,1.54
19.165,0.52,0.14,1.11,1.23
19.175,0.05,0.02,0.71,0.72
19.185,-0.31,-0.10,0.23,0.40
19.195,-0.52,-0.20,-0.37,0.67
19.205,-0.88,-0.31,-0.86,1.27
19.215,-1.27,-0.36,-1.15,1.75
19.225,-1.54,-0.31,-1.25,2.01
19.235,-1.60,-0.26,-1.15,1.99
19.245,-1.51,-0.25,-0.86,1.75
19.255,-1.25,-0.21,-0.46,1.35
19.265,-0.82,-0.19,-0.06,0.84
19.275,-0.38,-0.10,0.34,0.52
19.285,0.03,-0.02,0.62,0.62
19.295,0.39,0.02,0.74,0.84
19.305,0.67,0.08,0.69,0.97
19.315,0.84,0.09,0.53,1.00
19.326,0.89,0.12,0.44,1.01
19.335,0.87,0.15,0.44,0.99
19.345,0.73,0.10,0.50,0.89
19.355,0.58,0.01,0.53,0.78
19.365,0.40,-0.11,0.62,0.75
19.375,0.26,-0.21,0.70,0.77
19.386,0.12,-0.34,0.58,0.68
19.396,0.03,-0.41,0.36,0.54
19.405,-0.05,-0.41,0.06,0.42
19.416,-0.10,-0.35,-0.28,0.46
19.426,-0.16,-0.24,-0.47,0.55
19.436,-0.16,-0.19,-0.48,0.54
19.445,-0.16,-0.08,-0.30,0.35
19.456,-0.15,-0.01,-0.07,0.16
19.466,-0.12,0.04,0.09,0.16
19.476,-0.09,0.11,0.13,0.19
19.486,-0.06,0.18,0.05,0.19
19.496,-0.07,0.23,-0.14,0.27
19.506,-0.13,0.26,-0.39,0.49
19.515,-0.29,0.25,-0.49,0.62
19.526,-0.40,0.18,-0.46,0.64
19.536,-0.44,0.12,-0.32,0.56
19.546,-0.43,0.11,0.02,0.44
19.555,-0.29,0.08,0.29,0.42
19.566,-0.05,0.07,0.47,0.47
19.576,0.19,0.09,0.67,0.70
19.586,0.37,0.03,0.50,0.63
19.596,0.45,-0.07,0.07,0.46
19.606,0.39,-0.12,-0.41,0.58
19.616,0.20,0.01,-1.33,1.34
19.626,0.09,-0.01,-1.20,1.20
19.636,0.08,-0.22,-0.64,0.68
19.646,-0.03,-0.45,-0.31,0.55
19.656,-0.20,-0.34,0.18,0.43
19.666,-0.16,-0.12,0.70,0.73
19.676,0.10,0.02,1.09,1.09
19.686,0.38,0.11,1.18,1.25
19.696,0.54,0.09,0.80,0.97
19.706,0.53,0.01,0.02,0.53
19.716,0.29,0.05,-0.45,0.54
19.726,0.08,0.04,-0.68,0.68
19.736,-0.04,-0.06,-0.79,0.79
19.746,-0.27,-0.07,-0.63,0.69
19.756,-0.41,0.04,-0.32,0.53
19.766,-0.43,0.09,0.04,0.44
19.776,-0.37,-0.00,0.31,0.48
19.786,-0.32,-0.14,0.24,0.42
19.796,-0.32,-0.19,0.05,0.38
19.806,-0.27,-0.18,-0.12,0.34
19.816,-0.10,-0.14,-0.31,0.36
19.826,-0.00,-0.06,-0.37,0.37
19.836,0.08,-0.01,-0.28,0.29
19.846,0.16,0.01,-0.19,0.25
19.856,0.20,0.04,0.11,0.23
19.866,0.24,0.08,0.45,0.51
19.876,0.30,0.05,0.64,0.71
19.886,0.29,-0.02,0.67,0.72
19.896,0.22,-0.03,0.50,0.54
19.906,0.12,-0.02,0.15,0.20
19.916,0.03,0.01,-0.22,0.22
19.926,-0.04,0.06,-0.45,0.46
19.936,-0.11,0.10,-0.55,0.57
19.946,-0.21,0.11,-0.61,0.65
19.956,-0.35,0.09,-0.54,0.65
19.966,-0.32,0.03,-0.37,0.49
19.976,-0.30,-0.01,-0.17,0.35
19.986,-0.29,-0.06,-0.07,0.30
19.996,-0.34,-0.12,0.01,0.36
20.006,-0.37,-0.16,0.02,0.40
20.016,-0.30,-0.23,-0.02,0.38
20.026,-0.28,-0.22,0.05,0.36
20.036,-0.20,-0.05,0.01,0.20
20.046,-0.04,-0.05,-0.26,0.26
20.056,0.53,0.04,-0.38,0.65
20.066,0.17,0.03,-0.39,0.43
20.076,-0.40,-0.36,-1.10,1.23
20.086,-0.29,0.48,-0.88,1.04
20.096,0.71,0.80,-0.15,1.08
20.106,1.96,0.36,0.85,2.16
20.116,2.10,0.36,1.46,2.58
20.126,1.18,0.72,1.40,1.97
20.136,0.50,0.66,1.20,1.46
20.146,0.44,0.35,1.07,1.21
20.156,0.68,-0.03,0.77,1.03
20.166,0.84,-0.30,0.30,0.94
20.176,0.69,-0.43,-0.05,0.82
20.186,0.38,-0.61,-0.29,0.78
20.196,-0.23,-0.69,-0.60,0.94
20.206,-0.96,-0.62,-0.85,1.43
20.216,-1.44,-0.49,-0.85,1.74
20.226,-1.32,-0.51,-0.64,1.55
20.236,-0.96,-0.53,-0.39,1.16
20.246,-0.76,-0.27,-0.13,0.81
20.256,-0.84,0.14,0.28,0.90
20.266,-0.98,0.34,0.57,1.19
20.276,-1.00,0.14,0.53,1.14
20.286,-0.90,-0.17,0.37,0.99
20.296,-0.83,-0.39,0.23,0.95
20.306,-0.82,-0.40,-0.02,0.91
20.316,-0.70,-0.42,-0.31,0.87
20.326,-0.80,-0.43,-0.52,1.05
20.336,-1.10,-0.29,-0.67,1.32
20.346,-1.01,-0.30,-0.76,1.30
20.356,-0.62,-0.30,-0.69,0.98
20.366,-0.38,-0.13,-0.46,0.61
20.376,-0.18,0.03,-0.18,0.25
20.386,0.04,0.18,0.06,0.19
20.396,0.24,0.30,0.23,0.45
20.406,0.47,0.38,0.21,0.64
20.416,0.77,0.37,0.10,0.86
20.426,0.92,0.33,0.05,0.98
20.436,0.84,0.23,0.02,0.87
20.446,0.66,0.15,0.08,0.68
20.456,0.55,0.13,0.09,0.57
20.466,0.56,0.13,0.02,0.58
20.476,0.57,0.13,-0.08,0.59
20.486,0.52,0.11,-0.13,0.54
20.496,0.37,0.05,-0.20,0.43
20.506,0.15,-0.04,-0.22,0.27
20.516,-0.07,-0.10,-0.20,0.23
20.526,-0.26,-0.15,-0.18,0.35
20.536,-0.37,-0.20,-0.13,0.44
20.546,-0.39,-0.21,0.01,0.45
20.556,-0.36,-0.18,0.20,0.45
20.566,-0.29,-0.10,0.40,0.50
20.576,-0.16,-0.03,0.48,0.51
20.586,-0.08,0.03,0.40,0.41
20.596,-0.04,0.06,0.29,0.29
20.606,0.03,0.05,0.15,0.16
20.616,0.05,0.08,0.01,0.09
20.626,0.01,0.05,-0.13,0.14
20.636,-0.00,0.01,-0.28,0.29
20.646,-0.14,0.05,-0.40,0.42
20.656,-0.24,0.08,-0.40,0.48
20.666,-0.28,0.09,-0.44,0.53
20.676,-0.23,0.08,-0.53,0.58
20.686,-0.17,0.08,-0.56,0.59
20.696,-0.17,0.06,-0.58,0.60
20.706,-0.07,-0.02,-0.54,0.54
20.716,-0.01,-0.07,-0.54,0.54
20.727,-0.04,-0.15,-0.65,0.67
20.736,-0.06,-0.22,-0.78,0.82
20.746,-0.08,-0.26,-0.60,0.65
20.756,0.01,-0.24,-0.15,0.28
20.766,0.13,-0.20,0.27,0.36
20.777,0.22,-0.12,0.59,0.65
20.787,0.44,-0.11,0.76,0.89
20.796,0.70,-0.08,0.87,1.12
20.806,0.97,-0.03,0.82,1.28
20.816,1.27,0.05,0.68,1.44
20.827,1.46,0.11,0.45,1.53
20.836,1.61,-0.16,0.00,1.62
20.846,1.48,-0.40,-0.96,1.80
20.856,1.00,-0.82,-0.82,1.54
20.867,1.10,-1.03,-0.16,1.51
20.877,0.65,-0.88,-0.09,1.10
20.887,-0.21,-0.29,0.04,0.36
20.897,-1.11,0.30,0.32,1.19
20.907,-1.85,0.79,0.56,2.09
20.917,-2.03,1.29,0.55,2.47
20.927,-1.69,1.97,0.11,2.59
20.936,-1.13,3.05,-0.44,3.29
20.947,-0.82,4.50,-0.63,4.62
20.957,-0.88,6.13,-0.57,6.22
20.967,-0.90,7.82,-0.43,7.88
20.977,-0.70,9.34,0.09,9.37
20.987,-0.07,10.27,0.52,10.29
20.997,0.81,10.81,0.38,10.85
21.007,1.62,11.14,0.01,11.26
21.017,2.18,11.05,-0.69,11.29
21.027,2.38,10.34,-1.67,10.74
21.036,2.23,8.94,-2.50,9.54
21.047,2.10,7.14,-2.72,7.93
21.057,2.03,5.72,-2.27,6.48
21.067,2.08,4.38,-1.53,5.08
21.077,2.31,2.28,-0.99,3.39
21.087,2.79,-0.42,-0.42,2.85
21.097,3.14,-3.32,0.69,4.62
21.107,3.16,-5.98,2.16,7.10
21.117,2.72,-8.23,3.21,9.25
21.127,2.23,-10.19,3.64,11.05
21.137,1.23,-11.14,3.81,11.84
21.147,0.46,-12.15,3.53,12.66
21.157,-0.19,-13.22,3.54,13.69
21.167,-1.09,-13.94,4.12,14.57
21.177,-1.68,-14.25,4.39,15.01
21.187,-1.80,-14.13,4.04,14.81
21.197,-1.80,-13.65,3.17,14.13
21.207,-1.53,-12.85,1.63,13.04
21.217,-0.91,-11.89,-0.36,11.93
21.227,-0.20,-11.14,-2.15,11.35
21.237,0.13,-10.36,-3.41,10.91
21.247,0.17,-9.56,-4.00,10.36
21.257,0.03,-8.68,-3.63,9.41
21.267,-0.41,-7.56,-2.36,7.93
21.277,-0.83,-6.29,-1.03,6.43
21.287,-1.08,-4.85,-0.35,4.98
21.297,-1.06,-3.23,-0.61,3.45
21.307,-0.64,-1.74,-1.53,2.40
21.317,-0.04,-0.63,-2.48,2.56
21.327,0.39,0.98,-3.16,3.33
21.337,0.01,3.08,-3.29,4.50
21.347,0.87,4.24,-2.77,5.14
21.357,1.81,5.20,-1.95,5.84
21.367,1.98,6.41,-1.18,6.81
21.377,2.09,7.38,-0.73,7.71
21.387,2.50,7.97,-0.77,8.39
21.397,2.86,8.55,-0.85,9.05
21.407,3.16,9.17,-0.59,9.72
21.417,3.37,9.57,0.02,10.14
21.427,3.42,9.76,0.75,10.37
21.437,3.06,9.91,1.41,10.46
21.447,2.52,9.97,2.00,10.48
21.457,2.14,9.86,2.46,10.39
21.467,1.84,9.82,3.10,10.46
21.477,1.79,9.74,3.36,10.46
21.487,1.90,9.44,2.84,10.03
21.497,1.74,9.06,1.85,9.41
21.507,1.24,8.49,0.82,8.62
21.517,0.67,7.68,-0.46,7.72
21.527,0.03,6.84,-2.16,7.17
21.537,-0.51,6.01,-3.83,7.14
21.547,-0.97,4.98,-5.00,7.13
21.557,-1.47,3.81,-5.52,6.86
21.567,-2.02,2.72,-5.63,6.57
21.577,-2.58,1.78,-5.42,6.26
21.587,-2.71,0.73,-5.04,5.77
21.597,-2.31,-0.87,-4.89,5.48
21.607,-2.29,-2.77,-4.93,6.10
21.617,-3.16,-4.51,-4.53,7.13
21.627,-4.81,-6.93,-3.24,9.04
21.637,-5.54,-9.52,-1.26,11.09
21.647,-6.79,-10.95,0.43,12.89
21.657,-7.59,-12.06,2.03,14.39
21.667,-7.62,-12.82,3.43,15.30
21.677,-7.80,-13.52,5.01,16.39
21.687,-8.17,-14.52,7.44,18.25
21.697,-8.59,-15.08,8.14,19.17
21.707,-9.20,-15.06,7.20,19.06
21.717,-9.36,-14.59,5.25,18.11
21.727,-9.05,-13.83,2.61,16.73
21.737,-8.38,-12.86,-0.35,15.35
21.747,-7.54,-11.94,-3.12,14.46
21.757,-6.63,-10.97,-5.29,13.86
21.767,-5.64,-9.90,-6.56,13.15
21.777,-4.25,-9.07,-7.02,12.23
21.787,-2.23,-8.50,-6.85,11.14
21.797,0.23,-7.77,-6.03,9.84
21.807,2.42,-6.91,-4.42,8.55
21.817,4.85,-5.81,-2.64,8.02
21.827,6.69,-4.61,-0.79,8.16
21.837,8.65,-3.50,1.28,9.42
21.847,11.06,-2.41,2.99,11.70
21.857,13.28,-1.06,4.41,14.03
21.867,15.08,0.33,5.61,16.09
21.877,16.17,1.50,6.42,17.46
21.887,16.77,2.22,6.81,18.23
21.897,16.76,2.67,6.95,18.34
21.907,16.38,2.91,7.16,18.11
21.917,15.73,2.77,7.29,17.56
21.927,15.11,2.45,6.97,16.82
21.937,14.90,2.20,6.61,16.45
21.947,14.99,2.29,6.37,16.45
21.957,14.95,2.47,5.77,16.22
21.967,14.39,2.55,5.12,15.48
21.977,13.65,2.51,4.65,14.63
21.987,13.18,2.17,3.94,13.93
21.997,12.79,1.72,3.19,13.29
22.007,12.21,1.36,2.71,12.58
22.017,11.30,0.98,2.46,11.61
22.027,10.11,0.37,2.11,10.34
22.037,8.52,-0.46,1.75,8.71
22.047,6.50,-1.54,1.31,6.81
22.057,3.97,-2.51,0.70,4.75
22.068,1.00,-3.53,-0.20,3.68
22.078,-1.70,-4.93,-1.33,5.38
22.088,-4.28,-6.20,-2.26,7.87
22.097,-7.01,-6.77,-2.78,10.13
22.108,-9.53,-6.87,-2.62,12.04
22.118,-12.20,-6.42,-1.94,13.92
22.128,-15.01,-6.08,-1.16,16.24
22.138,-16.87,-6.38,-1.43,18.09
22.148,-17.58,-6.74,-1.30,18.87
22.157,-16.82,-7.08,-0.51,18.25
22.168,-15.70,-6.99,0.36,17.19
22.178,-14.76,-6.56,1.33,16.21
22.188,-14.07,-6.27,2.04,15.54
22.198,-13.50,-5.77,2.48,14.88
22.208,-12.54,-5.27,2.57,13.84
22.217,-11.46,-5.06,2.03,12.69
22.228,-10.65,-5.13,1.12,11.87
22.238,-9.90,-5.20,0.42,11.19
22.248,-8.84,-5.04,0.53,10.19
22.258,-7.45,-4.69,1.33,8.90
22.268,-5.85,-4.25,1.76,7.44
22.278,-4.09,-3.32,1.84,5.58
22.288,-2.24,-1.82,1.65,3.32
22.298,-0.49,-0.13,1.13,1.24
22.308,1.30,1.56,0.29,2.05
22.318,3.32,2.43,-0.79,4.18
22.328,5.11,3.94,-1.85,6.71
22.338,6.52,5.03,-2.33,8.55
22.348,8.58,5.42,-1.59,10.27
22.358,9.59,6.21,-0.26,11.43
22.368,9.78,6.86,0.34,11.95
22.378,9.72,7.30,0.03,12.15
22.388,9.76,7.65,-0.13,12.40
22.398,9.68,7.48,-0.19,12.23
22.408,9.10,6.76,-0.65,11.35
22.418,7.98,5.80,-1.17,9.94
22.428,6.48,4.61,-1.52,8.09
22.438,4.72,3.35,-1.88,6.08
22.448,1.95,1.82,-1.79,3.21
22.458,-1.80,-0.23,-1.24,2.19
22.468,-6.06,-2.79,-1.13,6.76
22.478,-9.65,-5.04,-1.85,11.05
22.488,-12.87,-6.42,-2.87,14.67
22.498,-15.20,-7.38,-3.88,17.34
22.508,-15.89,-8.74,-4.41,18.66
22.518,-15.26,-10.16,-4.63,18.91
22.528,-13.70,-11.04,-4.56,18.18
22.538,-11.52,-11.36,-4.23,16.72
22.548,-9.13,-11.24,-3.57,14.92
22.558,-6.65,-10.91,-2.71,13.06
22.570,-4.19,-10.55,-1.61,11.47
22.578,-1.50,-10.09,-0.39,10.20
22.588,1.29,-9.30,0.70,9.41
22.598,4.04,-8.27,1.23,9.28
22.608,6.78,-7.18,1.39,9.97
22.618,9.17,-5.93,1.21,10.98
22.628,11.09,-4.52,1.10,12.03
22.638,11.98,-2.91,1.79,12.46
22.648,12.76,-2.10,2.89,13.25
22.658,13.99,-2.26,3.56,14.61
22.668,14.67,-2.00,3.68,15.26
22.678,14.70,-1.38,3.52,15.18
22.688,14.40,-1.15,2.97,14.74
22.698,13.76,-1.46,2.03,13.99
22.708,13.17,-1.56,1.32,13.33
22.718,12.72,-1.38,1.28,12.85
22.728,12.25,-1.06,1.57,12.40
22.738,12.02,-0.83,1.81,12.19
22.748,12.02,-0.63,2.06,12.21
22.758,11.67,-0.48,2.17,11.88
22.768,10.87,-0.51,2.10,11.08
22.778,9.63,-0.76,1.93,9.85
22.788,8.05,-1.38,1.46,8.30
22.798,6.34,-2.19,0.63,6.73
22.808,4.55,-2.79,-0.04,5.34
22.818,3.09,-3.23,-0.38,4.48
22.828,2.07,-3.67,-0.45,4.24
22.838,1.17,-4.00,-0.03,4.17
22.848,-0.17,-4.37,0.80,4.44
22.858,-1.89,-4.68,1.42,5.24
22.868,-3.83,-4.68,1.71,6.29
22.878,-5.58,-4.70,1.83,7.52
22.888,-7.01,-4.71,1.79,8.64
22.898,-8.06,-4.54,1.41,9.36
22.908,-8.94,-4.18,0.75,9.90
22.918,-9.45,-3.55,-0.21,10.10
22.928,-9.53,-2.80,-1.26,10.01
22.938,-9.31,-2.09,-1.86,9.72
22.948,-8.93,-1.37,-1.93,9.24
22.958,-8.43,-0.91,-1.57,8.62
22.968,-7.88,-0.70,-1.05,7.98
22.978,-7.20,-0.62,-0.67,7.26
22.988,-6.35,-0.62,-0.44,6.40
22.998,-5.46,-0.54,-0.29,5.49
23.008,-4.64,-0.32,-0.29,4.66
23.018,-3.61,-0.12,-0.31,3.62
23.028,-2.31,0.08,-0.39,2.34
23.038,-1.19,0.43,-0.59,1.40
23.048,-0.32,0.89,-1.01,1.38
23.058,0.50,1.12,-1.48,1.92
23.068,1.09,1.20,-1.70,2.35
23.078,0.49,1.82,-1.07,2.16
23.088,-0.29,1.51,0.37,1.58
23.098,0.45,0.35,-0.70,0.90
23.108,0.35,-0.50,-1.41,1.54
23.118,-0.34,-0.86,-0.93,1.31
23.128,-0.76,-1.10,-0.24,1.36
23.138,-0.72,-1.35,0.13,1.54
23.148,-0.57,-1.51,0.16,1.62
23.158,-0.44,-1.35,0.24,1.44
23.168,-0.36,-0.96,0.28,1.06
23.178,-0.25,-0.53,0.04,0.59
23.188,-0.06,-0.24,-0.23,0.33
23.198,0.39,-0.08,-0.45,0.60
23.208,0.87,0.12,-0.76,1.16
23.218,-1.08,-0.27,-0.35,1.17
23.228,-0.94,-0.98,-0.20,1.37
23.238,-0.25,-0.27,0.05,0.38
23.248,-0.76,0.38,0.82,1.18
23.258,-0.27,0.64,1.32,1.49
23.268,0.45,0.25,0.79,0.94
23.278,0.34,0.55,1.07,1.25
23.288,0.17,0.98,1.70,1.97
23.298,0.64,0.67,1.39,1.68
23.308,0.84,0.80,1.27,1.72
23.318,0.51,1.27,2.43,2.79
23.328,0.41,1.86,3.32,3.83
23.338,0.65,3.29,1.57,3.70
23.348,0.41,4.13,0.34,4.16
23.358,-0.17,3.78,1.15,3.95
23.368,-0.26,3.10,-0.07,3.11
23.378,-0.40,2.91,-2.62,3.93
23.389,-0.93,3.70,-3.21,4.98
23.398,-1.43,5.21,-2.91,6.14
23.408,-1.52,5.86,-1.95,6.36
23.418,-1.45,5.96,-1.01,6.22
23.429,-1.25,5.92,-0.35,6.06
23.438,-0.84,4.80,-0.05,4.88
23.449,-0.43,3.37,-0.06,3.40
23.458,-0.06,2.03,-0.28,2.05
23.468,0.44,1.49,-0.34,1.59
23.478,0.73,1.94,0.03,2.08
23.489,0.16,2.64,0.54,2.70
23.499,-0.58,3.34,0.89,3.51
23.509,-1.02,3.80,0.59,3.98
23.518,-1.02,3.21,-0.55,3.41
23.529,-1.07,1.90,-1.59,2.70
23.539,-1.53,0.79,-1.10,2.04
23.549,-1.62,-0.00,-0.14,1.63
23.558,-2.28,-1.23,1.34,2.92
23.569,-3.12,-2.84,1.26,4.40
23.579,-2.74,-4.30,-0.14,5.10
23.589,-1.87,-5.51,-0.41,5.83
23.599,-0.49,-6.02,-1.16,6.15
23.609,1.77,-6.69,-1.52,7.08
23.619,3.83,-7.66,-1.95,8.79
23.629,4.71,-8.41,-1.86,9.81
23.639,3.73,-9.13,-0.13,9.86
23.649,1.86,-10.42,2.33,10.84
23.659,0.15,-10.98,4.29,11.79
23.669,-0.80,-10.49,4.92,11.61
23.679,-0.77,-10.05,4.79,11.16
23.689,-0.33,-9.57,3.72,10.27
23.699,0.40,-9.01,1.71,9.18
23.709,1.28,-8.54,-0.44,8.64
23.719,1.71,-7.97,-1.79,8.35
23.729,1.24,-7.01,-1.95,7.38
23.739,0.24,-5.60,-1.40,5.78
23.749,-0.58,-4.09,-1.03,4.26
23.759,-0.68,-2.60,-1.36,3.01
23.769,-0.20,-1.16,-2.56,2.82
23.779,0.42,-0.01,-3.87,3.89
23.789,0.99,1.60,-4.36,4.75
23.799,0.83,3.96,-4.05,5.72
23.809,1.45,5.25,-3.65,6.56
23.819,1.98,6.57,-2.60,7.34
23.829,2.28,8.43,-1.38,8.85
23.839,2.72,10.08,-1.01,10.49
23.849,3.59,11.07,-0.82,11.67
23.859,4.61,11.84,-0.65,12.73
23.869,5.56,12.61,-0.47,13.79
23.879,6.11,13.12,-0.34,14.47
23.889,6.09,12.71,-0.24,14.09
23.899,5.81,11.23,0.28,12.64
23.909,5.39,9.59,0.62,11.02
23.919,4.89,8.55,0.12,9.85
23.929,4.24,7.61,-1.11,8.78
23.939,2.77,6.10,-2.22,7.06
23.949,0.60,4.31,-2.67,5.11
23.959,-1.45,2.52,-2.86,4.08
23.969,-3.16,0.72,-3.20,4.55
23.979,-5.35,-1.15,-3.48,6.49
23.989,-6.64,-3.03,-3.47,8.08
23.999,-6.58,-4.83,-2.92,8.67
24.009,-5.75,-6.33,-1.98,8.78
24.019,-4.55,-7.93,-0.92,9.19
24.029,-3.43,-9.45,0.28,10.06
24.039,-2.90,-10.25,2.19,10.88
24.049,-2.91,-10.75,4.57,12.04
24.059,-3.24,-11.33,6.81,13.61
24.069,-3.47,-11.41,8.34,14.55
24.079,-3.30,-10.88,8.36,14.11
24.089,-2.43,-10.11,7.10,12.59
24.099,-1.30,-9.11,5.70,10.82
24.109,-0.43,-7.99,4.15,9.02
24.119,0.20,-7.06,2.06,7.36
24.129,0.87,-6.34,-0.27,6.41
24.139,1.53,-5.23,-1.92,5.78
24.149,1.78,-3.65,-2.67,4.86
24.159,1.72,-2.16,-3.03,4.10
24.169,1.41,-0.86,-2.98,3.40
24.179,0.86,0.45,-2.49,2.67
24.189,0.63,1.77,-1.81,2.61
24.199,0.70,2.95,-1.11,3.23
24.209,0.81,3.70,-0.75,3.86
24.219,0.58,6.53,-0.50,6.57
24.229,0.66,8.19,-0.22,8.22
24.239,0.45,9.35,0.49,9.37
24.249,-0.72,11.45,1.78,11.61
24.259,-1.73,13.40,3.27,13.90
24.269,-1.92,14.03,4.67,14.91
24.279,-1.76,13.38,4.97,14.38
24.289,-0.52,12.32,3.16,12.73
24.299,2.13,11.41,0.42,11.62
24.309,5.54,10.13,-1.67,11.67
24.319,7.61,9.08,-2.55,12.12
24.329,7.98,7.94,-3.13,11.69
24.339,6.96,5.85,-3.54,9.75
24.349,5.19,3.09,-3.47,6.96
24.359,3.22,0.42,-3.18,4.54
24.369,1.61,-2.41,-3.02,4.19
24.380,0.31,-5.53,-3.09,6.34
24.388,-0.42,-8.48,-3.36,9.13
24.398,-0.65,-13.98,-3.38,14.40
24.408,-0.41,-19.30,-2.79,19.51
24.418,-1.44,-21.18,-0.04,21.23
24.428,-2.56,-21.36,4.85,22.06
24.438,-4.07,-19.55,9.65,22.18
24.448,-4.90,-16.66,11.57,20.86
24.458,-4.48,-14.80,8.66,17.72
24.468,-3.72,-13.93,2.97,14.72
24.478,-3.20,-12.09,-1.95,12.66
24.488,-1.93,-9.45,-5.26,10.99
24.498,-0.74,-6.30,-7.32,9.69
24.508,-0.30,-3.00,-8.75,9.25
24.518,-0.22,0.15,-9.76,9.77
24.528,-0.19,3.12,-9.85,10.33
24.538,0.20,5.39,-8.80,10.32
24.548,-0.02,9.86,-6.58,11.86
24.558,0.74,12.51,-4.22,13.22
24.568,2.53,13.14,-2.39,13.59
24.578,4.05,13.78,-1.14,14.41
24.588,6.17,14.37,-0.57,15.65
24.598,8.61,14.75,-0.26,17.08
24.608,10.61,14.67,0.08,18.10
24.618,11.48,13.90,0.32,18.03
24.628,11.14,12.55,0.41,16.79
24.638,9.83,10.92,0.32,14.70
24.648,7.83,9.08,-0.19,11.99
24.658,5.54,7.16,-0.90,9.10
24.668,3.57,5.38,-1.82,6.70
24.678,1.87,3.42,-2.66,4.71
24.688,0.24,0.78,-2.99,3.10
24.698,-1.13,-2.31,-3.41,4.27
24.708,-2.08,-5.19,-4.27,7.03
24.718,-2.85,-9.99,-5.05,11.56
24.728,-2.64,-14.11,-4.85,15.15
24.738,-2.65,-16.46,-2.82,16.91
24.748,-2.24,-18.09,0.98,18.25
24.758,-2.53,-18.31,6.15,19.48
24.768,-3.86,-16.48,12.12,20.82
24.778,-4.57,-14.24,15.75,21.72
24.788,-4.53,-12.60,15.70,20.64
24.798,-4.05,-11.74,11.79,17.12
24.808,-3.18,-11.48,5.85,13.27
24.818,-1.82,-10.93,0.46,11.09
24.828,-0.88,-9.54,-3.64,10.25
24.838,-0.92,-7.57,-6.20,9.83
24.848,-1.63,-5.44,-7.32,9.26
24.858,-2.36,-3.53,-7.34,8.48
24.868,-2.64,-1.96,-7.12,7.85
24.878,-2.71,-0.33,-6.83,7.35
24.888,-2.44,1.08,-6.15,6.70
24.898,-1.75,2.04,-5.31,5.95
24.908,-0.78,2.85,-4.38,5.29
24.918,0.26,4.24,-3.15,5.29
24.928,1.68,5.18,-1.88,5.76
24.938,3.92,5.34,-1.37,6.77
24.948,5.56,5.28,-1.90,7.90
24.958,6.24,4.96,-2.48,8.35
24.969,6.19,4.18,-1.65,7.65
24.978,4.42,4.07,-0.86,6.07
24.988,2.84,3.88,-1.09,4.93
24.998,1.94,3.80,-1.15,4.42
25.008,0.81,3.34,-0.85,3.54
25.018,-0.31,2.68,1.07,2.91
25.029,-1.46,2.36,3.81,4.71
25.038,-2.63,2.40,5.56,6.60
25.048,-3.26,2.34,6.27,7.44
25.058,-3.87,2.06,6.44,7.79
25.068,-3.56,2.02,6.08,7.32
25.078,-2.74,1.78,5.28,6.21
25.088,-2.06,1.82,4.77,5.50
25.098,-1.97,1.66,5.05,5.67
25.109,-2.17,0.94,5.23,5.74
25.119,-2.65,-0.16,4.59,5.30
25.129,-3.42,-1.23,3.39,4.97
25.139,-4.12,-1.77,1.81,4.84
25.149,-4.15,-1.88,0.00,4.56
25.158,-3.51,-1.62,-1.70,4.22
25.169,-2.52,-1.13,-3.07,4.13
25.179,-1.61,-0.87,-3.75,4.17
25.189,-1.16,-1.00,-3.61,3.92
25.199,-1.14,-1.28,-3.19,3.63
25.209,-1.42,-1.52,-3.10,3.74
25.219,-1.81,-1.76,-3.38,4.22
25.229,-2.27,-2.08,-3.71,4.82
25.239,-2.80,-2.52,-4.09,5.56
25.249,-3.42,-3.14,-4.51,6.47
25.259,-4.07,-3.37,-4.80,7.14
25.269,-4.24,-2.84,-4.62,6.88
25.279,-3.54,-2.38,-3.92,5.79
25.289,-2.12,-1.87,-2.81,3.98
25.299,-0.42,-0.91,-1.24,1.59
25.309,1.09,0.02,0.30,1.13
25.319,1.87,0.45,1.30,2.32
25.329,2.08,0.34,1.43,2.55
25.339,1.84,-0.23,0.84,2.03
25.349,1.40,-1.07,0.13,1.77
25.359,1.50,-1.20,-0.74,2.05
25.369,1.96,-0.76,-1.38,2.51
25.379,3.08,-0.20,-1.74,3.55
25.389,3.31,0.23,-1.75,3.75
25.399,5.73,1.01,3.65,6.86
25.409,22.95,4.73,18.13,29.63
25.419,25.77,4.91,1.46,26.27
25.429,21.38,8.30,3.97,23.27
25.439,7.49,2.84,2.20,8.30
25.449,-3.06,-3.90,2.57,5.59
25.459,-5.53,-3.54,-0.49,6.58
25.469,-4.08,-3.97,-2.42,6.18
25.479,-5.15,-3.60,-0.12,6.28
25.489,-7.12,-2.02,3.39,8.14
25.499,-7.88,-0.93,6.06,9.99
25.509,-5.42,1.61,5.70,8.03
25.519,-2.03,5.18,5.59,7.89
25.529,1.95,8.53,4.25,9.73
25.539,1.17,7.46,2.39,7.92
25.549,-1.12,3.88,1.01,4.16
25.559,-0.39,1.51,1.16,1.94
25.569,2.00,1.36,1.30,2.74
25.579,2.29,1.43,0.50,2.75
25.589,1.94,1.24,1.02,2.52
25.599,2.05,1.10,2.41,3.35
25.609,2.43,1.38,2.53,3.77
25.619,2.70,0.68,2.09,3.49
25.629,2.97,-0.39,1.46,3.33
25.639,3.24,-1.10,0.45,3.45
25.649,3.22,-1.40,-0.36,3.53
25.659,2.90,-1.36,-0.71,3.28
25.669,2.26,-1.16,-0.88,2.69
25.679,1.62,-0.93,-1.20,2.23
25.689,1.68,-0.70,-1.72,2.50
25.699,1.75,-0.62,-2.48,3.10
25.709,1.25,-0.73,-2.96,3.30
25.719,0.98,-0.86,-3.01,3.28
25.729,0.89,-1.11,-2.77,3.12
25.739,1.18,-1.64,-2.54,3.25
25.749,1.54,-2.38,-2.30,3.66
25.759,1.76,-3.14,-1.84,4.04
25.769,1.58,-3.78,-1.25,4.28
25.779,1.05,-3.96,-0.89,4.19
25.789,0.09,-3.95,-0.69,4.01
25.799,-0.87,-3.99,-0.42,4.10
25.809,-1.41,-3.50,-0.55,3.82
25.819,-1.57,-2.73,-0.85,3.26
25.829,-2.00,-2.08,-0.89,3.01
25.839,-2.64,-1.62,-0.73,3.19
25.849,-3.09,-1.20,-0.68,3.39
25.859,-3.66,-0.75,-0.87,3.84
25.869,-4.39,-0.49,-1.11,4.56
25.879,-4.48,-0.21,-1.26,4.66
25.889,-3.90,-0.12,-1.18,4.07
25.899,-3.46,0.06,-1.46,3.75
25.909,-2.88,0.40,-1.91,3.48
25.919,-2.48,0.89,-2.04,3.33
25.929,-2.62,1.37,-1.96,3.55
25.939,-3.22,1.65,-1.92,4.09
25.949,-4.21,1.61,-1.74,4.83
25.959,-5.18,1.54,-1.13,5.52
25.969,-5.21,1.48,-0.52,5.44
25.979,-4.33,1.31,-0.23,4.53
25.989,-3.08,1.07,-0.04,3.26
25.999,-1.92,1.02,0.34,2.20
26.009,-1.10,1.04,0.59,1.63
26.019,-0.78,0.99,0.60,1.40
26.029,-0.71,0.88,0.56,1.26
26.039,-0.48,0.74,0.56,1.05
26.049,-0.16,0.62,0.36,0.74
26.059,0.35,0.46,-0.03,0.58
26.069,0.96,0.24,-0.37,1.05
26.079,1.48,-0.01,-0.50,1.57
26.089,1.78,-0.42,-0.46,1.89
26.099,1.83,-0.64,-0.27,1.96
26.109,1.71,-0.44,0.11,1.77
26.119,1.07,-0.35,0.30,1.17
26.129,0.39,-0.51,0.23,0.68
26.139,0.33,-0.43,0.38,0.66
26.149,0.69,-0.05,0.95,1.18
26.159,0.72,0.13,1.22,1.42
26.169,0.73,0.09,0.80,1.08
26.179,0.90,0.04,0.26,0.94
26.189,1.19,-0.06,-0.17,1.20
26.199,1.25,-0.25,-0.57,1.39
26.209,1.05,-0.53,-0.87,1.46
26.219,0.61,-0.87,-0.85,1.36
26.229,0.17,-1.11,-0.33,1.17
26.239,0.05,-1.11,0.20,1.12
26.249,0.12,-0.94,0.50,1.07
26.259,0.14,-0.81,0.53,0.97
26.269,0.07,-0.65,0.38,0.76
26.279,-0.11,-0.41,0.14,0.45
26.289,-0.30,-0.28,0.00,0.41
26.299,-0.45,-0.16,0.03,0.48
26.309,-0.80,-0.04,0.08,0.81
26.319,-1.17,0.11,0.09,1.18
26.329,-1.46,0.24,0.17,1.49
26.339,-1.55,0.27,0.26,1.60
26.350,-1.31,0.19,0.21,1.34
26.359,-0.79,0.17,0.12,0.81
26.370,-0.41,0.29,0.08,0.51
26.379,-0.35,0.47,0.04,0.59
26.390,-0.34,0.71,0.02,0.79
26.399,-0.41,1.01,-0.00,1.09
26.410,-0.76,1.23,-0.18,1.45
26.419,-1.29,1.33,-0.35,1.88
26.430,-1.85,1.35,-0.37,2.32
26.439,-2.06,1.41,-0.15,2.50
26.450,-2.00,1.33,0.07,2.40
26.459,-1.71,1.00,0.22,1.99
26.469,-1.38,0.73,0.48,1.64
26.480,-1.14,0.56,0.48,1.36
26.489,-0.90,0.34,0.22,0.99
26.500,-0.81,0.15,-0.10,0.83
26.509,-0.43,-0.08,-0.53,0.69
26.519,0.14,-0.28,-0.91,0.96
26.530,0.60,-0.28,-1.11,1.30
26.542,0.97,-0.20,-1.17,1.53
26.550,1.18,-0.13,-1.07,1.60
26.559,0.99,-0.07,-0.82,1.29
26.569,0.52,-0.12,-0.54,0.76
26.580,-0.01,-0.40,-0.25,0.47
26.590,-0.19,-0.70,-0.19,0.75
26.600,-0.26,-0.94,-0.27,1.01
26.609,0.04,-1.12,-0.29,1.16
26.620,0.48,-1.07,-0.01,1.18
26.630,0.66,-0.88,0.26,1.13
26.640,0.46,-0.81,0.06,0.93
26.650,0.13,-0.90,-0.40,0.99
26.660,0.15,-1.05,-0.86,1.37
26.670,0.40,-1.19,-1.16,1.71
26.680,0.75,-1.30,-1.21,1.93
26.690,1.16,-1.34,-1.07,2.07
26.700,1.42,-1.36,-0.75,2.11
26.710,1.60,-1.30,-0.22,2.07
26.720,1.70,-1.02,0.46,2.04
26.730,1.47,-0.62,0.95,1.86
26.740,1.00,-0.19,1.20,1.58
26.750,0.14,0.22,1.45,1.48
26.760,-0.94,0.48,1.76,2.05
26.770,-1.83,0.54,2.01,2.77
26.780,-2.32,0.51,2.26,3.28
26.790,-2.28,0.45,2.33,3.29
26.800,-2.03,0.24,2.08,2.92
26.810,-1.73,-0.14,1.57,2.34
26.820,-1.35,-0.57,0.96,1.76
26.830,-0.95,-0.86,0.57,1.40
26.840,-0.54,-0.93,0.35,1.13
26.850,-0.22,-0.89,-0.04,0.92
26.860,0.08,-0.79,-0.54,0.96
26.870,0.44,-0.57,-0.96,1.20
26.880,0.73,-0.33,-1.41,1.62
26.890,0.96,-0.08,-1.75,1.99
26.900,1.10,0.07,-1.93,2.23
26.910,1.26,0.14,-1.97,2.34
26.920,1.35,-0.03,-1.85,2.29
26.930,1.25,-0.36,-1.61,2.07
26.940,0.95,-0.73,-1.31,1.77
26.950,1.06,-0.80,-0.70,1.50
26.960,1.29,-0.71,0.09,1.47
26.970,1.11,-0.67,0.31,1.34
26.980,0.56,-0.52,0.14,0.77
26.990,0.08,-0.16,0.17,0.24
27.000,-0.29,0.20,0.28,0.45
27.010,-0.49,0.36,0.10,0.62
27.020,-0.69,0.32,0.03,0.76
27.030,-0.69,0.24,0.17,0.75
27.040,-0.51,0.23,0.38,0.67
27.050,-0.21,0.15,0.48,0.54
27.060,0.07,0.06,0.57,0.57
27.070,0.27,0.05,0.72,0.77
27.080,0.20,0.06,0.80,0.83
27.090,-0.04,0.10,0.75,0.75
27.100,-0.32,0.23,0.69,0.80
27.110,-0.54,0.35,0.79,1.01
27.120,-0.77,0.40,0.83,1.20
27.130,-0.96,0.36,0.81,1.31
27.140,-0.95,0.28,0.80,1.27
27.150,-0.76,0.28,0.73,1.09
27.160,-0.46,0.32,0.59,0.82
27.170,-0.29,0.43,0.36,0.63
27.180,-0.33,0.56,0.08,0.66
27.190,-0.56,0.64,-0.12,0.86
27.200,-0.87,0.64,-0.19,1.10
27.210,-1.07,0.60,-0.19,1.24
27.220,-1.22,0.55,-0.09,1.35
27.230,-1.21,0.44,0.08,1.29
27.240,-1.07,0.24,0.13,1.11
27.250,-0.84,0.05,0.00,0.84
27.260,-0.54,-0.09,-0.29,0.62
27.270,-0.25,-0.27,-0.69,0.78
27.280,-0.09,-0.39,-1.04,1.11
27.290,-0.02,-0.32,-1.30,1.34
27.300,-0.03,-0.13,-1.41,1.41
27.310,0.13,-0.09,-1.49,1.50
27.320,0.56,-0.25,-1.55,1.66
27.330,1.08,-0.58,-1.50,1.94
27.340,1.57,-0.93,-1.45,2.33
27.350,1.76,-1.10,-1.28,2.44
27.360,1.73,-1.12,-1.10,2.33
27.370,1.66,-0.96,-0.81,2.08
27.380,1.48,-0.69,-0.36,1.67
27.390,1.24,-0.45,-0.06,1.32
27.400,0.91,-0.35,0.06,0.98
27.410,0.56,-0.16,0.34,0.67
27.420,-0.01,0.23,0.85,0.88
27.430,-0.55,0.55,1.26,1.48
27.440,-0.91,0.84,1.59,2.02
27.450,-1.32,1.02,1.81,2.46
27.460,-1.80,1.11,1.71,2.72
27.470,-2.27,1.07,1.35,2.85
27.480,-2.34,0.97,1.07,2.75
27.490,-1.82,0.76,0.82,2.14
27.500,-1.26,0.42,0.57,1.44
27.510,-0.62,0.11,0.39,0.74
27.520,-0.08,-0.17,0.33,0.38
27.530,0.19,-0.40,0.29,0.53
27.540,0.15,-0.61,0.12,0.64
27.550,0.01,-0.72,-0.11,0.73
27.560,-0.19,-0.73,-0.29,0.81
27.570,-0.30,-0.68,-0.33,0.81
27.580,-0.18,-0.58,-0.33,0.69
27.590,0.06,-0.49,-0.30,0.58
27.600,0.30,-0.48,-0.21,0.60
27.610,0.40,-0.39,-0.01,0.56
27.620,0.39,-0.20,0.21,0.49
27.630,0.15,-0.16,0.27,0.35
27.640,-0.22,-0.21,0.19,0.36
27.650,-0.53,-0.29,0.20,0.64
27.660,-0.75,-0.30,0.31,0.86
27.670,-0.85,-0.34,0.32,0.97
27.680,-0.76,-0.28,0.17,0.82
27.690,-0.48,-0.17,-0.10,0.52
27.701,-0.25,-0.07,-0.34,0.43
27.710,-0.14,0.08,-0.55,0.58
27.720,-0.19,0.23,-0.67,0.73
27.730,-0.14,0.34,-0.78,0.86
27.740,0.08,0.37,-1.00,1.07
27.750,0.45,0.39,-1.22,1.35
27.760,0.83,0.50,-1.36,1.67
27.770,1.16,0.55,-1.53,2.00
27.780,1.40,0.56,-1.52,2.14
27.791,1.43,0.50,-1.32,2.01
27.800,1.43,0.30,-1.22,1.91
27.810,1.44,0.10,-0.98,1.74
27.820,1.41,-0.09,-0.70,1.57
27.831,1.18,-0.27,-0.52,1.32
27.840,0.99,-0.42,-0.38,1.14
27.851,0.81,-0.50,-0.14,0.97
27.861,0.53,-0.63,0.21,0.85
27.870,0.12,-0.76,0.38,0.86
27.881,-0.25,-0.86,0.38,0.97
27.891,-0.37,-0.92,0.33,1.04
27.901,-0.34,-0.99,0.26,1.08
27.911,-0.13,-0.96,0.33,1.03
27.920,0.02,-0.79,0.53,0.95
27.931,0.03,-0.64,0.71,0.96
27.941,0.02,-0.55,0.80,0.97
27.951,0.07,-0.40,0.84,0.93
27.961,0.16,-0.27,0.84,0.90
27.970,0.21,-0.18,0.60,0.66
27.981,0.15,-0.04,0.19,0.25
27.991,0.07,0.10,-0.16,0.20
28.001,0.12,0.14,-0.45,0.48
28.011,0.24,-0.00,-0.86,0.90
28.021,0.35,-0.28,-1.26,1.33
28.031,0.58,-0.52,-1.35,1.56
28.041,0.78,-0.60,-1.10,1.48
28.051,0.69,-0.59,-0.71,1.16
28.061,0.25,-0.41,-0.43,0.65
28.071,-0.19,-0.20,-0.21,0.35
28.081,-0.54,0.10,0.06,0.55
28.091,-0.94,0.43,0.13,1.05
28.101,-1.30,0.59,-0.07,1.43
28.111,-1.39,0.56,-0.17,1.51
28.121,-0.90,0.49,-0.02,1.03
28.131,-0.19,0.38,0.19,0.46
28.141,0.50,0.24,0.34,0.65
28.151,0.98,0.15,0.37,1.06
28.161,1.13,0.06,0.44,1.21
28.171,0.95,0.14,0.59,1.13
28.181,0.62,0.41,0.82,1.11
28.191,0.22,0.69,1.05,1.27
28.201,-0.19,0.89,1.05,1.39
28.211,-0.71,0.94,0.95,1.51
28.221,-1.21,0.96,1.13,1.92
28.231,-1.54,0.79,1.00,2.00
28.241,-1.42,0.38,0.37,1.52
28.251,-0.77,0.04,-0.26,0.82
28.261,-0.20,-0.35,-0.77,0.87
28.271,0.38,-0.66,-1.03,1.28
28.281,0.77,-0.88,-1.11,1.62
28.291,0.81,-1.13,-1.12,1.79
28.301,0.64,-1.31,-0.94,1.73
28.311,0.57,-1.23,-0.73,1.54
28.321,0.48,-0.97,-0.71,1.29
28.331,0.07,-0.64,-0.68,0.94
28.341,-0.66,-0.42,-0.69,1.04
28.351,-1.37,-0.37,-0.67,1.57
28.361,-1.86,-0.45,-0.49,1.97
28.371,-2.25,-0.45,-0.19,2.31
28.381,-2.48,-0.39,0.05,2.51
28.391,-2.53,-0.22,0.22,2.55
28.401,-2.35,0.01,0.23,2.36
28.411,-2.00,0.06,-0.01,2.00
28.421,-1.43,-0.02,-0.23,1.45
28.431,-0.64,-0.07,-0.40,0.76
28.441,0.26,-0.16,-0.53,0.61
28.451,1.04,-0.27,-0.51,1.19
28.461,1.51,-0.42,-0.35,1.61
28.471,1.56,-0.55,0.00,1.65
28.481,1.18,-0.60,0.65,1.47
28.491,0.58,-0.78,1.20,1.55
28.501,-0.09,-0.91,1.34,1.62
28.511,-0.76,-0.86,1.19,1.65
28.521,-1.15,-0.55,0.87,1.55
28.531,-1.28,-0.29,0.48,1.40
28.541,-1.49,-0.29,-0.20,1.53
28.551,-1.60,-0.42,-0.94,1.90
28.561,-1.57,-0.49,-1.55,2.26
28.571,-1.52,-0.65,-2.29,2.83
28.581,-1.24,-0.98,-2.92,3.32
28.591,-0.78,-1.09,-2.95,3.24
28.601,-0.75,-0.93,-2.72,2.97
28.611,-0.63,-1.05,-2.20,2.52
28.621,-0.86,-1.41,-1.92,2.54
28.631,-1.09,-1.66,-1.87,2.73
28.641,-0.65,-1.88,-1.61,2.56
28.651,0.25,-2.08,-1.75,2.73
28.661,1.02,-2.12,-2.00,3.09
28.671,1.33,-2.06,-2.37,3.41
28.681,1.41,-1.89,-2.58,3.50
28.691,1.81,-1.37,-2.30,3.23
28.701,2.62,-0.53,-2.35,3.55
28.711,2.63,-0.03,-2.59,3.69
28.721,2.03,-0.05,-2.70,3.38
28.731,0.95,-0.53,-2.50,2.72
28.741,-0.10,-1.40,-2.43,2.81
28.751,0.27,-1.92,-2.46,3.13
28.761,1.06,-1.83,-1.81,2.78
28.771,1.96,-0.85,-0.49,2.19
28.781,2.23,0.09,0.27,2.25
28.791,1.77,0.44,0.23,1.83
28.801,0.94,0.65,0.08,1.15
28.811,0.21,0.93,0.42,1.04
28.821,-0.05,0.96,0.95,1.35
28.831,0.13,0.81,1.73,1.91
28.841,0.62,0.78,2.58,2.77
28.851,1.16,1.00,3.68,3.98
28.861,1.36,1.22,4.41,4.78
28.871,0.86,1.13,4.35,4.57
28.881,0.07,0.94,4.06,4.17
28.891,-0.54,1.07,3.99,4.16
28.901,-0.94,1.42,3.86,4.22
28.911,-1.02,1.66,3.40,3.92
28.921,-0.77,1.75,2.68,3.29
28.931,-0.55,1.76,1.91,2.66
28.941,-0.64,1.61,1.42,2.24
28.951,-1.01,1.35,1.24,2.09
28.961,-1.14,1.06,1.26,2.00
28.971,-1.01,0.77,1.25,1.79
28.981,-0.76,0.46,1.25,1.54
28.991,-0.44,0.19,1.33,1.41
29.001,-0.15,0.06,1.50,1.51
29.011,-0.15,0.15,1.61,1.63
29.021,-0.51,0.21,1.39,1.50
29.031,-0.89,0.05,0.85,1.23
29.041,-0.87,0.03,0.25,0.91
29.051,-0.57,0.16,-0.15,0.61
29.061,-0.41,0.27,-0.41,0.64
29.071,-0.22,0.24,-0.49,0.59
29.081,0.06,0.09,-0.31,0.33
29.091,0.23,-0.16,0.16,0.33
29.101,0.21,-0.40,0.62,0.77
29.112,0.07,-0.53,0.53,0.75
29.121,0.02,-0.59,0.17,0.62
29.132,0.20,-0.53,-0.15,0.59
29.141,0.40,-0.33,-0.31,0.60
29.151,0.53,-0.14,-0.39,0.68
29.162,0.37,-0.03,-0.35,0.51
29.172,0.31,0.06,-0.12,0.34
29.182,0.44,0.15,0.39,0.61
29.192,0.35,0.18,0.45,0.60
29.202,0.26,0.18,0.32,0.45
29.212,0.58,0.39,0.37,0.79
29.222,0.68,0.52,0.44,0.96
29.232,0.15,0.15,0.11,0.24
29.242,0.02,-0.13,0.03,0.13
29.252,-0.06,-0.21,-0.15,0.26
29.262,0.08,-0.19,-0.05,0.21
29.272,0.36,-0.03,0.08,0.37
29.282,0.49,0.12,0.10,0.51
29.292,0.41,0.21,0.28,0.54
29.302,0.09,0.13,0.25,0.30
29.312,-0.18,-0.01,0.10,0.20
29.322,-0.38,-0.09,-0.03,0.39
29.332,-0.45,-0.13,-0.20,0.51
29.342,-0.11,0.06,-0.15,0.20
29.352,0.05,0.25,-0.01,0.26
29.362,0.04,0.22,0.03,0.23
29.372,-0.00,0.10,-0.09,0.14
29.382,0.07,0.04,-0.18,0.20
29.392,0.08,0.07,-0.14,0.18
29.402,0.14,0.05,-0.12,0.19
29.412,0.17,0.02,-0.10,0.20
29.422,0.07,-0.06,-0.07,0.12
29.432,-0.02,-0.15,0.04,0.16
29.442,-0.17,-0.22,0.14,0.31
29.452,-0.22,-0.20,0.16,0.34
29.462,-0.23,-0.15,0.08,0.29
29.472,-0.27,-0.14,-0.01,0.31
29.482,-0.21,-0.09,-0.02,0.23
29.492,-0.10,-0.09,-0.12,0.18
29.502,-0.05,-0.12,-0.09,0.16
29.512,-0.07,-0.15,0.00,0.17
29.522,-0.05,-0.17,0.06,0.19
29.532,0.00,-0.17,0.16,0.24
29.542,0.08,-0.15,0.24,0.29
29.552,0.12,-0.04,0.20,0.24
29.562,0.13,0.08,0.06,0.16
29.572,0.05,0.11,-0.03,0.13
29.582,-0.02,0.11,0.01,0.11
29.592,-0.15,0.08,0.08,0.19
29.602,-0.24,0.04,0.23,0.33
29.612,-0.26,-0.00,0.33,0.42
29.622,-0.03,-0.02,0.36,0.36
29.632,0.16,-0.02,0.31,0.34
29.642,0.19,-0.00,0.18,0.26
29.652,0.18,0.01,0.07,0.19
29.662,0.08,0.01,-0.01,0.08
29.672,-0.01,0.05,-0.12,0.13
29.682,-0.08,0.03,-0.22,0.23
29.692,-0.11,-0.06,-0.24,0.27
29.702,-0.08,-0.07,-0.17,0.20
29.712,-0.02,-0.03,-0.18,0.18
29.722,-0.02,0.01,-0.27,0.27
29.732,-0.04,0.01,-0.39,0.39
29.742,-0.00,0.04,-0.43,0.43
29.752,-0.01,0.08,-0.45,0.46
29.762,-0.10,0.06,-0.49,0.50
29.772,-0.27,-0.00,-0.49,0.56
29.782,-0.35,-0.04,-0.40,0.53
29.792,-0.26,-0.03,-0.29,0.39
29.802,-0.09,-0.02,-0.34,0.35
29.812,0.09,0.01,-0.41,0.42
29.822,0.16,0.07,-0.46,0.49
29.832,0.14,0.12,-0.49,0.52
29.842,0.09,0.15,-0.48,0.51
29.852,-0.01,0.20,-0.41,0.46
29.862,0.00,0.21,-0.27,0.34
29.872,0.05,0.19,-0.12,0.23
29.882,0.09,0.18,-0.02,0.20
29.892,0.09,0.18,0.02,0.20
29.902,0.06,0.11,0.04,0.13
29.912,0.01,0.05,0.21,0.21
29.922,-0.05,-0.06,0.56,0.56
29.932,-0.08,-0.16,0.92,0.94
29.942,-0.08,-0.26,1.19,1.22
29.952,-0.08,-0.43,1.27,1.34
29.963,-0.10,-0.50,1.05,1.17
29.972,-0.09,-0.44,0.81,0.93
29.982,-0.11,-0.31,0.68,0.75
29.992,-0.25,-0.22,0.49,0.59
30.002,-0.35,-0.16,0.20,0.44
30.012,-0.37,-0.01,0.04,0.37
30.022,-0.39,0.17,-0.08,0.43
30.032,-0.37,0.25,-0.26,0.52
30.042,-0.34,0.30,-0.36,0.58
30.052,-0.30,0.30,-0.41,0.59
30.062,-0.25,0.19,-0.42,0.53
30.072,-0.21,0.12,-0.32,0.39
30.082,-0.18,0.03,-0.13,0.23
30.092,-0.15,-0.05,0.04,0.17
30.102,-0.12,-0.13,0.08,0.19
30.112,-0.04,-0.10,0.01,0.11
30.122,0.03,0.05,-0.18,0.19
30.132,0.05,0.18,-0.43,0.47
30.142,0.11,0.24,-0.56,0.62
30.152,0.23,0.29,-0.54,0.65
30.162,0.27,0.29,-0.41,0.58
30.172,0.22,0.18,-0.27,0.39
30.182,0.22,0.10,-0.11,0.26
30.192,0.21,0.09,0.02,0.22
30.202,0.17,0.07,0.10,0.21
30.212,0.02,0.07,0.11,0.14
30.222,-0.12,0.04,0.04,0.14
30.232,-0.13,-0.04,0.01,0.14
30.242,-0.11,-0.03,0.08,0.14
30.252,-0.10,0.00,0.09,0.14
30.262,-0.10,0.00,-0.01,0.10
30.272,-0.04,-0.01,-0.10,0.11
30.282,0.06,-0.02,-0.11,0.13
30.292,0.02,-0.07,-0.06,0.10
30.302,-0.05,-0.06,0.00,0.08
30.312,-0.12,0.05,0.02,0.14
30.322,-0.23,0.14,-0.13,0.30
30.332,-0.24,0.25,-0.24,0.42
30.346,-0.22,0.32,-0.29,0.49
30.356,-0.16,0.31,-0.17,0.39
30.366,-0.13,0.29,0.03,0.32
30.376,-0.04,0.28,0.08,0.30
30.386,0.08,0.27,0.04,0.28
30.396,0.04,0.23,0.08,0.25
30.406,-0.02,0.18,0.33,0.38
30.416,0.00,0.08,0.52,0.53
30.426,0.08,0.04,0.59,0.60
30.436,0.22,0.07,0.48,0.53
30.446,0.36,0.03,0.30,0.47
30.456,0.47,-0.02,0.16,0.49
30.466,0.52,-0.02,-0.04,0.52
30.476,0.50,0.06,-0.23,0.55
30.486,0.41,0.08,-0.50,0.65
30.496,0.34,0.03,-0.69,0.77
30.506,0.30,0.10,-0.52,0.60
30.516,0.15,0.09,-0.33,0.37
30.526,0.10,0.03,-0.36,0.37
30.536,0.16,-0.04,-0.36,0.40
30.546,0.17,-0.15,-0.35,0.41
30.556,0.26,-0.19,-0.41,0.52
30.566,0.35,-0.21,-0.41,0.58
30.576,0.43,-0.20,-0.32,0.57
30.586,0.42,-0.17,-0.17,0.49
30.596,0.15,-0.29,0.00,0.33
30.606,-0.08,-0.38,0.18,0.43
30.616,-0.19,-0.38,0.33,0.54
30.626,-0.21,-0.37,0.49,0.65
30.636,0.02,-0.34,0.74,0.81
30.646,0.60,0.02,1.24,1.38
30.656,0.19,-0.18,0.68,0.73
30.666,0.29,-0.47,-0.10,0.57
30.676,0.06,-0.54,-0.26,0.61
30.686,0.01,-0.45,-0.32,0.55
30.696,-0.14,-0.33,-0.58,0.68
30.706,-0.12,-0.14,-0.52,0.55
30.716,-0.15,-0.01,-0.30,0.33
30.726,-0.19,0.04,-0.04,0.20
30.736,-0.22,0.10,0.14,0.28
30.746,-0.32,0.08,0.04,0.33
30.756,-0.28,-0.00,-0.10,0.30
30.766,-0.14,0.00,-0.17,0.22
30.776,-0.07,-0.03,-0.17,0.19
30.786,0.01,-0.10,-0.16,0.19
30.796,0.06,-0.14,-0.12,0.19
30.806,0.06,-0.20,-0.00,0.21
30.816,0.07,-0.20,0.10,0.24
30.826,0.10,-0.16,0.17,0.25
30.836,0.05,-0.12,0.09,0.16
30.846,0.00,-0.12,-0.03,0.12
30.856,0.12,-0.03,0.18,0.22
30.866,0.12,0.06,0.24,0.28
30.876,0.01,0.02,0.09,0.09
30.886,0.07,-0.01,0.06,0.09
30.896,0.11,0.04,0.14,0.18
30.906,0.10,0.06,0.17,0.21
30.916,-0.00,0.07,0.10,0.12
30.926,-0.12,0.02,-0.03,0.12
30.936,-0.14,0.01,-0.11,0.18
30.946,-0.17,0.07,-0.13,0.23
30.956,-0.16,0.12,-0.17,0.27
30.966,-0.09,0.18,-0.17,0.26
30.976,-0.08,0.13,-0.14,0.21
30.986,-0.06,0.02,-0.17,0.18
30.996,0.03,-0.05,-0.13,0.15
31.006,0.10,-0.11,-0.02,0.15
31.016,0.08,-0.18,0.09,0.22
31.026,0.06,-0.24,0.12,0.28
31.036,0.02,-0.19,0.11,0.22
31.047,0.01,-0.15,-0.00,0.15
31.056,-0.02,-0.07,-0.13,0.15
31.067,-0.06,-0.05,-0.25,0.27
31.077,-0.04,-0.07,-0.30,0.31
31.087,-0.03,-0.08,-0.22,0.24
31.097,-0.00,-0.12,-0.11,0.16
31.107,0.00,-0.20,0.02,0.20
31.117,0.05,-0.21,0.21,0.30
31.127,0.07,-0.18,0.39,0.44
31.137,0.05,-0.15,0.46,0.49
31.147,0.04,-0.16,0.34,0.38
31.157,0.08,-0.10,0.23,0.26
31.167,0.11,-0.03,0.10,0.15
31.177,0.10,0.05,-0.04,0.12
31.187,0.10,0.07,-0.19,0.22
31.197,0.02,0.11,-0.25,0.27
31.207,-0.08,0.10,-0.30,0.33
31.217,-0.06,0.08,-0.33,0.35
31.227,-0.04,0.13,-0.26,0.29
31.237,-0.14,0.13,-0.15,0.24
31.247,-0.27,0.03,-0.15,0.31
31.257,-0.29,-0.02,-0.03,0.29
31.267,-0.26,-0.04,0.13,0.29
31.277,-0.17,-0.05,0.19,0.26
31.287,-0.09,-0.06,0.22,0.24
31.297,-0.03,-0.11,0.15,0.19
31.307,0.08,-0.13,0.05,0.16
31.317,0.20,-0.05,0.01,0.21
31.327,0.25,0.01,-0.02,0.25
31.337,0.23,0.05,-0.08,0.25
31.347,0.17,0.11,-0.10,0.23
31.357,0.05,0.14,-0.15,0.21
31.367,-0.04,0.12,-0.22,0.25
31.377,-0.13,0.07,-0.28,0.31
31.387,-0.18,-0.01,-0.17,0.24
31.397,-0.20,-0.10,0.01,0.22
31.407,-0.14,-0.18,0.13,0.26
31.417,-0.06,-0.25,0.23,0.35
31.427,-0.02,-0.31,0.24,0.39
31.437,0.05,-0.30,0.23,0.38
31.447,0.09,-0.24,0.15,0.30
31.457,0.15,-0.14,0.03,0.21
31.467,0.14,-0.06,-0.04,0.16
31.477,0.17,0.01,-0.09,0.19
31.487,0.19,0.10,-0.15,0.26
31.497,0.22,0.16,-0.23,0.36
31.507,0.22,0.24,-0.25,0.41
31.517,0.20,0.33,-0.21,0.44
31.527,0.17,0.33,-0.20,0.42
31.537,0.18,0.28,-0.18,0.38
31.547,0.12,0.18,-0.08,0.23
31.557,0.06,0.07,-0.01,0.09
31.567,-0.02,-0.05,0.02,0.06
31.577,-0.11,-0.16,-0.03,0.20
31.587,-0.21,-0.19,-0.02,0.29
31.597,-0.28,-0.17,-0.01,0.33
31.607,-0.21,-0.16,0.03,0.27
31.617,-0.11,-0.14,0.11,0.21
31.627,0.01,-0.09,0.05,0.11
31.637,0.12,-0.05,-0.07,0.15
31.647,0.10,-0.03,-0.14,0.18
31.657,0.07,-0.01,-0.20,0.22
31.667,0.03,-0.04,-0.17,0.18
31.677,-0.05,-0.03,-0.04,0.07
31.687,-0.11,-0.02,0.08,0.14
31.697,-0.12,0.01,0.18,0.22
31.707,-0.04,0.06,0.14,0.16
31.717,0.07,0.08,-0.01,0.11
31.727,0.14,0.13,-0.13,0.23
31.737,0.17,0.13,-0.22,0.31
31.747,0.20,0.11,-0.23,0.33
31.757,0.21,0.07,-0.10,0.25
31.767,0.16,-0.01,0.02,0.16
31.777,0.14,-0.07,0.01,0.16
31.787,0.14,-0.10,-0.00,0.17
31.797,0.10,-0.12,0.04,0.16
31.807,0.05,-0.15,0.00,0.16
31.817,-0.00,-0.18,-0.03,0.19
31.827,-0.10,-0.17,0.00,0.20
31.837,-0.19,-0.13,0.09,0.25
31.847,-0.26,-0.04,0.17,0.32
31.857,-0.37,0.05,0.18,0.41
31.867,-0.41,0.02,-0.01,0.41
31.877,-0.33,-0.02,-0.19,0.38
31.887,-0.25,-0.02,-0.26,0.36
31.897,-0.14,-0.03,-0.21,0.26
31.907,-0.13,-0.11,-0.10,0.20
31.917,-0.15,-0.27,-0.00,0.31
31.927,-0.04,-0.37,0.14,0.40
31.937,-0.02,-0.41,0.28,0.50
31.947,-0.07,-0.44,0.34,0.56
31.957,-0.18,-0.44,0.28,0.55
31.967,-0.31,-0.39,0.13,0.51
31.977,-0.36,-0.29,0.04,0.47
31.987,-0.38,-0.18,0.00,0.43
31.997,-0.40,-0.05,-0.12,0.42
32.007,-0.48,0.05,-0.30,0.57
32.017,-0.63,0.08,-0.42,0.76
32.027,-0.66,0.13,-0.38,0.77
32.037,-0.66,0.21,-0.25,0.74
32.047,-0.69,0.22,-0.08,0.73
32.057,-0.82,0.12,0.06,0.84
32.067,-0.74,-0.03,0.13,0.75
32.077,-0.68,-0.09,0.12,0.70
32.087,-0.83,-0.07,0.11,0.84
32.097,-0.95,0.01,0.17,0.97
32.107,-1.06,0.08,0.19,1.08
32.117,-1.23,-0.05,0.14,1.24
32.127,-1.22,-0.26,0.16,1.26
32.137,-1.32,-0.37,0.34,1.41
32.147,-1.65,-0.44,0.49,1.78
32.157,-2.01,-0.41,0.45,2.10
32.167,-2.24,-0.16,0.39,2.28
32.177,-2.46,0.21,0.21,2.48
32.187,-2.64,0.44,-0.19,2.68
32.197,-2.63,0.68,-0.66,2.80
32.207,-2.64,0.86,-0.74,2.87
32.217,-2.68,0.82,-0.27,2.82
32.227,-2.59,0.66,-0.06,2.68
32.237,-2.61,0.55,0.02,2.67
32.248,-2.89,0.56,0.21,2.95
32.257,-3.10,0.48,0.63,3.20
32.267,-2.03,-0.04,0.24,2.05
32.277,-1.48,-0.44,0.18,1.55
32.287,-1.96,-0.17,0.87,2.15
32.297,-1.97,0.31,1.12,2.29
32.307,-1.43,0.47,0.81,1.71
32.318,-0.81,0.20,0.35,0.90
32.327,-0.70,-0.19,0.50,0.88
32.338,-0.76,-0.41,0.77,1.16
32.348,-0.74,-0.56,0.44,1.03
32.358,-0.52,-0.75,-0.27,0.95
32.368,-0.01,-0.96,-1.09,1.45
32.378,0.69,-0.84,-1.60,1.93
32.388,1.52,-0.03,-1.15,1.91
32.397,1.85,0.79,-0.07,2.01
32.407,1.94,0.46,0.27,2.02
32.417,2.50,-0.74,-0.34,2.63
32.428,3.20,-1.24,-0.70,3.50
32.438,3.98,-0.60,-0.39,4.04
32.448,4.53,-0.23,-0.40,4.56
32.458,4.96,-0.55,-0.30,5.00
32.468,5.36,-0.97,0.10,5.44
32.478,5.58,-1.31,0.30,5.73
32.488,5.87,-1.46,0.42,6.06
32.498,6.20,-1.53,0.67,6.42
32.508,6.46,-1.69,0.77,6.72
32.518,6.88,-1.91,0.54,7.16
32.528,7.26,-2.11,0.12,7.56
32.538,7.37,-2.30,-0.26,7.72
32.548,7.42,-2.41,-0.61,7.82
32.558,7.27,-2.48,-0.90,7.73
32.568,6.97,-2.54,-0.98,7.48
32.578,6.50,-2.58,-0.96,7.06
32.588,5.98,-2.60,-0.95,6.59
32.598,5.43,-2.60,-0.90,6.09
32.608,4.84,-2.58,-0.93,5.56
32.618,4.29,-2.65,-0.96,5.13
32.628,3.86,-2.65,-0.99,4.78
32.638,3.59,-2.51,-0.99,4.49
32.648,3.33,-2.33,-0.95,4.18
32.658,2.85,-2.29,-1.04,3.80
32.668,2.34,-2.37,-1.29,3.57
32.678,1.80,-2.29,-1.51,3.28
32.688,1.25,-1.99,-1.61,2.85
32.698,0.61,-1.52,-1.64,2.32
32.708,-0.24,-1.10,-1.53,1.90
32.718,-1.11,-0.81,-1.25,1.86
32.728,-2.17,-0.66,-0.67,2.36
32.738,-3.35,-0.60,0.04,3.40
32.748,-4.33,-0.54,0.62,4.40
32.758,-5.10,-0.50,0.97,5.22
32.768,-5.57,-0.44,1.14,5.71
32.778,-5.70,-0.31,1.14,5.82
32.788,-5.66,-0.06,1.00,5.75
32.798,-5.61,0.19,0.74,5.66
32.808,-5.52,0.33,0.44,5.55
32.818,-5.34,0.48,0.30,5.37
32.828,-5.28,0.68,0.43,5.34
32.838,-5.31,0.82,0.61,5.41
32.848,-5.44,0.96,0.83,5.58
32.858,-5.63,1.13,1.14,5.85
32.868,-5.77,1.29,1.38,6.07
32.878,-5.80,1.44,1.57,6.18
32.888,-5.74,1.57,1.64,6.17
32.898,-5.33,1.70,1.56,5.81
32.908,-4.67,1.77,1.45,5.20
32.918,-4.12,1.86,1.23,4.69
32.928,-3.64,1.94,1.00,4.24
32.938,-3.22,1.90,0.84,3.84
32.948,-2.82,1.85,0.79,3.46
32.958,-2.32,1.87,0.77,3.08
32.968,-1.81,1.88,0.78,2.72
32.978,-1.39,1.71,0.59,2.28
32.988,-0.96,1.53,0.27,1.83
32.998,-0.43,1.45,-0.04,1.51
33.008,0.24,1.48,-0.31,1.54
33.018,1.01,1.54,-0.49,1.90
33.028,1.95,1.61,-0.57,2.59
33.038,2.77,1.64,-0.52,3.26
33.048,3.02,1.47,-0.42,3.38
33.058,2.85,1.03,-0.14,3.03
33.068,2.38,0.48,0.16,2.43
33.078,1.90,0.12,0.71,2.03
33.088,1.37,0.07,1.39,1.96
33.098,0.99,0.32,1.91,2.18
33.108,0.71,0.63,2.11,2.31
33.118,0.56,0.68,1.79,1.99
33.128,0.50,0.60,1.25,1.47
33.138,0.19,0.53,1.04,1.19
33.148,-0.03,0.39,0.90,0.98
33.158,0.22,0.38,0.81,0.92
33.168,0.16,0.43,0.67,0.82
33.178,-0.24,0.00,0.27,0.36
33.188,-0.44,-0.35,0.09,0.57
33.198,-1.04,-0.46,-0.47,1.23
33.208,-1.11,-0.98,-0.34,1.52
33.218,-1.58,-1.93,-0.74,2.60
33.228,-1.73,-2.63,-1.25,3.39
33.238,-1.27,-3.07,-1.44,3.62
33.248,-0.93,-3.39,-1.16,3.70
33.258,-0.84,-3.94,-0.82,4.11
33.268,-0.75,-4.72,-0.33,4.79
33.278,-0.81,-5.41,0.40,5.48
33.288,-0.67,-5.83,0.90,5.93
33.298,-0.66,-6.09,1.01,6.21
33.308,-0.53,-6.15,0.69,6.21
33.318,-0.40,-6.12,0.22,6.14
33.328,-0.25,-5.96,-0.31,5.98
33.338,-0.17,-5.51,-1.03,5.61
33.348,-0.05,-4.97,-1.82,5.29
33.358,0.17,-4.53,-2.62,5.24
33.368,-0.02,-4.12,-2.93,5.05
33.378,-0.04,-3.68,-3.01,4.76
33.388,0.09,-3.27,-3.08,4.49
33.398,0.20,-3.15,-3.01,4.36
33.408,0.43,-3.07,-2.78,4.17
33.418,0.67,-2.86,-2.49,3.85
33.428,0.72,-2.59,-2.17,3.45
33.438,0.62,-2.26,-1.71,2.90
33.448,0.54,-1.78,-1.38,2.32
33.458,0.61,-1.41,-1.49,2.14
33.468,1.03,-1.30,-1.73,2.40
33.478,1.56,-1.16,-1.63,2.53
33.488,1.96,-0.83,-1.47,2.59
33.498,2.12,-0.47,-1.29,2.53
33.508,1.82,-0.14,-0.93,2.04
33.518,1.52,0.09,-0.63,1.65
33.528,1.34,0.48,-0.52,1.51
33.538,1.34,1.09,-0.53,1.81
33.548,1.67,1.68,-0.69,2.47
33.558,2.23,2.28,-0.34,3.21
33.569,2.23,2.54,0.16,3.38
33.579,1.97,3.02,1.02,3.75
33.588,1.44,3.39,2.18,4.28
33.599,-0.17,3.28,3.03,4.47
33.608,-1.54,3.47,3.85,5.41
33.618,-2.85,3.76,4.53,6.54
33.628,-3.79,4.12,4.69,7.30
33.638,-4.09,4.55,4.48,7.58
33.648,-4.23,4.81,4.14,7.63
33.658,-4.44,4.88,3.82,7.62
33.669,-4.46,4.91,3.35,7.43
33.678,-4.51,4.91,2.89,7.26
33.688,-4.45,4.81,2.43,6.99
33.699,-4.46,4.56,1.97,6.68
33.708,-4.52,4.20,1.71,6.40
33.719,-4.30,3.82,1.39,5.92
33.729,-3.88,3.36,0.87,5.20
33.739,-3.44,2.85,0.68,4.52
33.749,-3.22,2.37,0.44,4.02
33.759,-3.15,1.85,0.19,3.65
33.769,-3.06,1.26,-0.14,3.31
33.779,-2.76,0.72,-0.51,2.89
33.789,-2.19,0.16,-0.90,2.37
33.799,-1.41,-0.50,-1.48,2.11
33.809,-1.25,-1.06,-1.58,2.28
33.819,-1.02,-1.66,-1.10,2.24
33.829,-0.36,-2.39,-1.01,2.62
33.839,0.40,-3.14,-1.43,3.48
33.849,0.90,-3.80,-1.09,4.05
33.859,1.31,-4.57,-0.70,4.81
33.869,0.84,-5.31,-0.62,5.41
33.879,0.26,-4.95,-0.93,5.04
33.889,-0.88,-4.48,-0.41,4.58
33.899,-1.29,-4.28,1.25,4.64
33.909,-1.66,-3.85,1.65,4.51
33.919,-2.24,-3.46,0.88,4.22
33.929,-1.12,-2.47,2.35,3.59
33.939,-0.06,-1.87,1.25,2.25
33.949,-0.88,-2.84,-0.77,3.07
33.959,-1.01,-3.12,-1.29,3.52
33.965,-1.29,-2.34,-1.42,3.02
33.975,-1.72,-1.51,-1.13,2.55
33.985,-1.80,-0.74,-0.78,2.10
33.995,-1.61,-0.13,-0.61,1.73
34.005,-1.23,0.23,-0.45,1.33
34.015,-0.42,0.43,-0.65,0.89
34.025,0.88,0.64,-0.97,1.46
34.035,1.83,0.93,-0.89,2.24
34.045,2.12,1.25,-0.39,2.49
34.055,2.22,1.33,0.36,2.61
34.065,2.24,0.97,0.82,2.58
34.075,2.35,0.71,1.03,2.66
34.085,2.82,0.74,1.15,3.13
34.095,3.77,0.63,0.65,3.88
34.105,4.47,0.32,-0.30,4.49
34.115,4.62,0.19,-1.11,4.76
34.125,4.90,0.29,-1.61,5.17
34.135,5.13,0.23,-1.69,5.41
34.145,5.20,-0.02,-1.34,5.37
34.155,5.34,-0.35,-0.76,5.40
34.165,5.45,-0.64,-0.46,5.50
34.175,5.53,-0.92,-0.24,5.61
34.185,5.44,-1.23,-0.06,5.58
34.195,5.58,-1.50,0.06,5.78
34.205,5.75,-1.73,0.13,6.00
34.215,5.81,-1.83,0.24,6.10
34.225,5.69,-1.84,0.36,5.99
34.235,5.25,-1.71,0.36,5.53
34.245,4.88,-1.52,0.31,5.12
34.255,4.52,-1.38,0.31,4.74
34.265,3.84,-1.32,0.35,4.07
34.275,3.19,-1.16,0.42,3.42
34.285,2.69,-0.94,0.45,2.88
34.295,2.32,-0.84,0.49,2.52
34.305,1.83,-0.95,0.16,2.07
34.315,1.13,-1.20,-0.43,1.70
34.325,1.22,-1.21,-0.36,1.76
34.335,1.26,-0.94,-0.84,1.78
34.345,0.76,-0.71,-0.74,1.28
34.355,-0.10,-0.48,-0.53,0.72
34.365,-1.01,-0.30,-0.42,1.13
34.379,-1.88,-0.13,-0.15,1.89
34.389,-2.57,0.17,0.06,2.58
34.399,-3.14,0.54,0.19,3.20
34.409,-3.75,0.97,0.42,3.90
34.419,-4.63,1.54,0.76,4.94
34.429,-5.92,2.20,1.20,6.43
34.439,-7.68,2.85,1.39,8.31
34.449,-8.75,3.34,1.56,9.49
34.459,-9.32,3.73,1.64,10.17
34.469,-9.31,3.83,1.39,10.16
34.479,-8.73,3.54,0.77,9.45
34.489,-7.51,3.03,-0.02,8.10
34.499,-6.48,2.38,-0.42,6.91
34.509,-6.32,1.50,-0.35,6.51
34.519,-5.77,0.80,-0.11,5.82
34.529,-5.28,0.32,0.63,5.33
34.539,-4.66,-0.26,1.02,4.77
34.549,-4.11,-0.94,1.18,4.38
34.559,-3.42,-1.53,1.32,3.97
34.569,-2.71,-1.85,1.08,3.46
34.579,-1.97,-2.06,0.84,2.97
34.589,-1.24,-2.19,0.58,2.58
34.599,-0.67,-2.17,0.30,2.29
34.609,-0.44,-2.01,-0.08,2.06
34.619,-0.32,-1.77,-0.24,1.81
34.629,-0.45,-1.62,-0.33,1.72
34.639,-0.55,-1.54,-0.34,1.67
34.649,-0.53,-1.39,-0.08,1.49
34.659,-0.13,-1.16,0.15,1.18
34.669,0.32,-0.99,0.19,1.06
34.679,0.64,-0.96,0.06,1.16
34.689,0.96,-0.94,-0.23,1.36
34.699,1.16,-0.90,-0.44,1.53
34.709,1.41,-0.87,-0.53,1.74
34.719,1.62,-0.75,-0.52,1.86
34.729,1.59,-0.75,-0.48,1.83
34.739,1.71,-0.58,-0.48,1.87
34.749,2.13,-0.49,-0.49,2.25
34.759,2.67,-0.71,-0.53,2.81
34.769,3.11,-1.01,-0.57,3.32
34.779,3.48,-1.27,-0.68,3.77
34.789,3.83,-1.41,-0.71,4.14
34.799,4.16,-1.49,-0.59,4.46
34.809,4.26,-1.52,-0.64,4.57
34.819,4.32,-1.51,-0.66,4.62
34.830,4.41,-1.57,-0.30,4.69
34.839,4.68,-1.80,0.06,5.01
34.849,5.01,-2.06,0.41,5.43
34.859,5.28,-2.37,0.66,5.83
34.869,5.34,-2.75,0.75,6.05
34.880,5.33,-3.23,0.70,6.27
34.889,5.54,-3.60,0.80,6.65
34.899,5.87,-3.87,0.90,7.09
34.909,5.99,-4.26,0.81,7.39
34.920,5.43,-4.99,0.50,7.39
34.930,4.87,-4.72,0.29,6.78
34.939,4.34,-4.40,0.22,6.18
34.949,3.58,-4.21,-0.14,5.53
34.960,2.83,-3.80,-0.41,4.75
34.970,1.53,-3.33,-0.43,3.69
34.980,0.00,-2.73,-0.43,2.76
34.990,-1.33,-2.01,-0.41,2.44
35.000,-2.39,-1.39,-0.39,2.79
35.010,-3.06,-0.95,-0.37,3.22
35.020,-3.27,-0.66,-0.32,3.35
35.030,-3.69,-0.41,-0.39,3.74
35.040,-4.61,0.11,-0.43,4.63
35.050,-5.34,0.89,-0.15,5.42
35.059,-6.04,1.22,0.22,6.17
35.070,-6.77,1.58,0.47,6.97
35.080,-7.49,2.09,0.75,7.81
35.090,-8.15,2.60,0.97,8.61
35.100,-8.72,2.90,1.18,9.27
35.110,-8.77,2.95,1.22,9.33
35.120,-8.40,2.80,0.87,8.90
35.130,-8.11,2.50,0.35,8.49
35.140,-7.82,2.20,-0.02,8.13
35.150,-7.58,1.85,-0.09,7.81
35.160,-7.18,1.57,0.03,7.35
35.170,-6.67,1.24,0.16,6.78
35.180,-6.15,0.91,0.16,6.22
35.190,-5.53,0.63,-0.11,5.56
35.200,-5.01,0.49,-0.44,5.06
35.210,-4.67,0.40,-0.58,4.72
35.220,-4.43,0.34,-0.68,4.49
35.230,-4.08,0.30,-0.85,4.18
35.240,-3.47,0.07,-0.91,3.59
35.250,-2.65,-0.27,-0.75,2.77
35.260,-1.85,-0.49,-0.48,1.97
35.270,-1.16,-0.59,-0.28,1.33
35.280,-0.47,-0.66,-0.09,0.82
35.290,0.20,-0.72,0.02,0.75
35.300,0.71,-0.84,0.25,1.13
35.310,1.35,-0.97,0.50,1.74
35.320,2.10,-1.11,0.63,2.46
35.330,2.79,-1.35,0.85,3.21
35.340,3.40,-1.69,0.97,3.92
35.350,3.86,-2.08,0.86,4.46
35.360,4.50,-2.40,0.68,5.14
35.370,5.38,-2.56,0.59,5.98
35.380,6.09,-2.59,0.55,6.64
35.390,6.58,-2.66,0.42,7.11
35.400,6.89,-2.87,0.26,7.47
35.410,7.10,-3.22,0.15,7.80
35.420,7.36,-3.48,0.21,8.15
35.430,7.49,-3.56,0.27,8.30
35.440,7.63,-3.60,0.27,8.44
35.450,7.84,-3.50,0.38,8.59
35.460,7.84,-3.27,0.39,8.51
35.470,7.52,-2.99,0.44,8.10
35.480,6.93,-2.64,0.43,7.43
35.490,6.11,-2.20,0.38,6.51
35.500,5.37,-1.69,0.39,5.64
35.510,4.66,-1.13,0.45,4.81
35.520,3.78,-0.51,0.63,3.86
35.530,2.78,0.15,0.71,2.88
35.540,1.88,0.82,0.56,2.13
35.550,1.30,1.32,0.37,1.89
35.560,0.81,1.70,0.10,1.88
35.570,0.29,1.98,-0.27,2.02
35.580,-0.21,2.25,-0.67,2.35
35.590,-0.73,2.51,-0.96,2.79
35.600,-1.58,2.63,-0.96,3.21
35.610,-2.10,2.65,-0.84,3.48
35.620,-2.34,2.64,-0.77,3.61
35.630,-2.68,2.57,-0.77,3.79
35.640,-2.95,2.35,-0.83,3.86
35.650,-3.24,2.01,-0.88,3.91
35.660,-3.40,1.56,-0.86,3.84
35.670,-3.39,0.94,-0.84,3.62
35.680,-3.31,0.38,-0.81,3.43
35.690,-3.20,0.39,-0.68,3.29
35.700,-3.68,0.21,-0.74,3.76
35.710,-4.53,-0.47,-0.43,4.57
35.720,-4.84,-1.24,-0.00,5.00
35.730,-4.40,-1.72,0.28,4.73
35.740,-4.43,-2.81,0.89,5.32
35.750,-4.67,-4.43,1.01,6.51
35.760,-4.42,-5.37,1.27,7.07
35.770,-3.92,-5.35,1.97,6.92
35.780,-3.48,-5.55,2.17,6.90
35.790,-3.20,-6.04,1.83,7.08
35.800,-3.12,-6.35,1.20,7.17
35.810,-3.04,-6.40,0.48,7.10
35.820,-2.79,-6.08,-0.23,6.69
35.830,-2.46,-5.88,-0.80,6.43
35.840,-1.93,-5.69,-1.43,6.18
35.850,-1.24,-5.32,-1.80,5.75
35.860,-0.60,-5.02,-1.92,5.41
35.870,-0.14,-4.85,-1.92,5.22
35.880,-0.01,-4.50,-1.90,4.89
35.890,-0.00,-3.99,-2.04,4.48
35.900,-0.15,-3.64,-2.13,4.22
35.910,-0.31,-3.38,-2.12,4.00
35.920,-0.01,-3.13,-1.79,3.61
35.930,0.44,-2.88,-1.25,3.18
35.940,1.25,-2.61,-0.77,3.00
35.950,2.06,-2.13,-0.49,3.01
35.960,2.33,-1.42,-0.64,2.80
35.970,2.24,-0.66,-0.97,2.53
35.980,2.00,0.12,-1.25,2.36
35.990,1.76,0.94,-1.25,2.35
36.000,1.82,1.65,-0.80,2.58
36.010,1.96,2.84,-0.14,3.45
36.020,1.91,3.48,0.32,3.99
36.030,1.74,4.03,0.62,4.43
36.040,1.45,4.77,1.14,5.11
36.050,1.04,5.41,1.63,5.74
36.060,0.51,6.04,2.17,6.44
36.070,-0.17,6.61,2.80,7.18
36.080,-1.01,7.17,3.30,7.96
36.090,-1.89,7.69,3.46,8.65
36.100,-2.53,8.09,3.30,9.09
36.110,-2.82,8.28,2.87,9.21
36.120,-2.69,8.27,2.18,8.97
36.130,-2.45,8.05,1.41,8.53
36.140,-2.33,7.58,0.78,7.97
36.150,-2.22,7.01,0.29,7.36
36.160,-2.10,6.37,-0.04,6.71
36.170,-1.90,5.66,-0.35,5.98
36.180,-1.63,4.93,-0.72,5.24
36.190,-1.37,4.21,-0.96,4.53
36.200,-1.11,3.48,-1.08,3.81
36.210,-0.94,2.79,-1.11,3.14
36.221,-0.90,2.17,-1.03,2.56
36.231,-0.98,1.51,-0.93,2.02
36.241,-1.18,0.91,-0.88,1.73
36.250,-1.52,0.30,-0.72,1.71
36.261,-1.83,-0.43,-0.49,1.94
36.271,-1.89,-1.19,-0.04,2.23
36.281,-1.74,-1.91,0.49,2.63
36.291,-1.32,-2.64,0.82,3.07
36.301,-0.84,-3.39,0.89,3.60
36.311,-0.26,-4.05,0.93,4.16
36.321,0.27,-4.67,1.22,4.83
36.331,0.21,-6.21,1.32,6.35
36.341,0.82,-6.43,1.46,6.64
36.351,1.32,-6.32,2.05,6.77
36.361,1.72,-6.58,2.09,7.12
36.371,2.01,-6.57,1.74,7.09
36.381,2.16,-6.19,1.26,6.68
36.391,1.93,-5.96,0.65,6.30
36.401,1.52,-5.64,0.19,5.85
36.411,1.24,-5.13,0.01,5.28
36.421,0.97,-4.70,-0.09,4.80
36.431,0.74,-4.33,-0.21,4.40
36.441,0.64,-3.93,-0.33,4.00
36.451,0.62,-3.48,-0.63,3.59
36.461,0.53,-3.11,-1.02,3.32
36.471,0.56,-2.80,-1.44,3.20
36.481,0.71,-2.64,-1.58,3.15
36.491,1.05,-2.47,-1.41,3.03
36.501,1.25,-2.26,-1.15,2.83
36.511,1.29,-1.96,-0.91,2.51
36.521,1.25,-1.75,-0.77,2.29
36.531,1.09,-1.61,-0.41,1.99
36.541,0.79,-1.46,0.07,1.66
36.551,0.55,-1.35,0.41,1.51
36.561,0.37,-1.29,0.59,1.46
36.571,0.46,-1.24,0.48,1.40
36.581,0.59,-1.16,0.47,1.38
36.591,0.54,-0.85,0.75,1.26
36.601,0.38,-0.60,1.14,1.34
36.611,0.28,-0.58,1.46,1.60
36.621,0.38,-0.53,1.49,1.63
36.631,0.42,-0.48,1.23,1.39
36.641,0.40,-0.04,0.89,0.97
36.651,0.58,0.09,0.62,0.85
36.661,0.86,0.23,0.20,0.91
36.671,1.04,0.58,0.20,1.21
36.681,0.86,0.74,0.45,1.22
36.691,0.52,0.71,0.71,1.13
36.701,0.44,0.24,0.72,0.88
36.711,-0.07,0.33,0.53,0.63
36.721,-0.49,1.21,0.53,1.41
36.731,0.08,1.50,0.31,1.53
36.741,0.58,1.20,-0.24,1.36
36.751,0.61,0.93,-0.64,1.28
36.761,0.57,0.90,-0.67,1.25
36.771,0.55,0.94,-0.89,1.40
36.781,0.25,1.08,-1.35,1.74
36.791,-0.04,1.20,-1.97,2.31
36.801,0.10,1.20,-2.50,2.77
36.811,-0.28,1.88,-1.93,2.70
36.821,-1.62,2.25,-0.65,2.85
36.831,-1.42,2.70,0.71,3.13
36.841,-2.04,2.64,-0.58,3.39
36.851,-5.29,2.11,-0.89,5.76
36.861,-9.92,3.67,1.73,10.72
36.871,-5.36,2.34,1.97,6.17
36.881,-2.22,1.64,0.72,2.85
36.891,0.99,-1.00,-0.94,1.69
36.901,2.30,-1.58,-0.98,2.95
36.911,2.95,-0.96,-1.64,3.51
36.921,1.86,-1.20,-2.62,3.43
36.931,1.54,-0.36,-1.45,2.15
36.941,-0.28,-0.33,-0.02,0.43
36.951,-1.83,-1.11,0.35,2.17
36.961,-0.89,-1.51,0.07,1.76
36.971,-0.46,-1.24,-0.17,1.33
36.981,0.52,-0.01,-0.25,0.58
36.991,1.35,1.69,-0.48,2.21
37.001,1.51,3.15,-0.75,3.57
37.011,1.64,4.35,-0.88,4.73
37.021,1.11,4.55,-0.09,4.68
37.031,0.04,3.47,1.13,3.65
37.041,-0.33,2.33,2.07,3.13
37.051,0.91,2.08,0.89,2.44
37.061,1.82,1.76,-0.59,2.60
37.071,2.12,1.06,-1.16,2.64
37.081,2.05,1.21,-1.54,2.83
37.091,2.02,1.47,-1.52,2.93
37.101,2.17,1.82,-0.12,2.83
37.111,1.99,2.17,0.96,3.10
37.121,2.14,1.59,1.07,2.87
37.131,2.23,0.67,0.86,2.49
37.141,2.20,-0.14,0.77,2.33
37.151,2.17,-0.59,0.34,2.27
37.161,1.96,-0.89,0.35,2.18
37.171,1.70,-0.38,0.51,1.81
37.181,1.50,0.72,0.14,1.67
37.191,1.27,1.15,-0.20,1.72
37.201,1.18,0.98,-0.71,1.69
37.211,0.99,0.48,-0.38,1.16
37.221,0.89,-0.11,0.22,0.92
37.231,1.06,-0.60,-0.03,1.22
37.241,1.30,-0.64,-0.56,1.55
37.251,1.50,-0.28,-0.95,1.80
37.261,1.65,0.04,-1.35,2.13
37.271,1.60,0.07,-1.67,2.32
37.281,1.19,-0.44,-1.68,2.10
37.291,0.38,-1.16,-1.14,1.67
37.301,-0.11,-1.50,-0.08,1.51
37.311,-0.89,-2.36,0.47,2.57
37.321,-1.16,-1.67,-0.82,2.19
37.331,-1.52,-0.71,-0.85,1.88
37.341,-1.65,-0.79,-0.12,1.83
37.351,-1.33,-1.54,-0.23,2.05
37.361,-1.06,-1.94,-0.55,2.28
37.371,-1.07,-1.58,-0.97,2.14
37.381,-1.23,-1.09,-1.30,2.10
37.391,-1.36,-1.09,-1.21,2.12
37.401,-1.45,-1.39,-0.79,2.16
37.411,-1.54,-1.72,-0.28,2.33
37.421,-1.72,-1.90,0.05,2.57
37.431,-1.87,-2.00,0.15,2.74
37.442,-1.98,-2.10,0.33,2.91
37.451,-1.97,-2.17,0.69,3.02
37.461,-2.06,-2.19,1.44,3.33
37.472,-2.29,-2.40,2.09,3.92
37.481,-2.67,-2.70,2.20,4.39
37.492,-3.22,-3.02,1.65,4.71
37.502,-3.70,-3.28,0.75,5.00
37.511,-3.97,-3.51,0.00,5.30
37.522,-4.12,-3.62,-0.34,5.50
37.532,-4.63,-3.61,0.17,5.87
37.541,-5.26,-3.79,1.20,6.59
37.552,-5.64,-4.00,1.97,7.19
37.562,-5.51,-3.93,2.13,7.09
37.572,-4.95,-3.89,1.40,6.45
37.582,-4.39,-4.08,0.36,6.00
37.592,-3.74,-4.29,-0.57,5.72
37.602,-2.93,-4.31,-1.26,5.36
37.612,-2.08,-4.15,-1.61,4.92
37.622,-1.36,-3.86,-1.44,4.34
37.632,-0.99,-3.59,-0.81,3.81
37.642,-0.88,-3.36,-0.12,3.48
37.652,-0.77,-3.25,0.29,3.35
37.662,-0.30,-3.21,0.27,3.23
37.672,0.68,-3.19,-0.27,3.27
37.682,1.78,-2.92,-1.03,3.57
37.692,2.60,-2.34,-1.50,3.81
37.702,2.96,-1.84,-1.42,3.76
37.712,3.14,-1.65,-1.12,3.72
37.722,3.04,-1.46,-0.77,3.46
37.732,2.93,-1.13,-0.46,3.18
37.742,2.99,-0.63,-0.19,3.06
37.752,3.14,-0.23,0.04,3.15
37.762,3.36,-0.01,0.25,3.37
37.772,3.52,0.10,0.40,3.55
37.782,3.34,0.46,0.52,3.41
37.792,3.11,0.69,0.49,3.23
37.802,3.07,0.96,0.42,3.25
37.812,2.80,1.59,0.55,3.27
37.822,2.67,2.05,0.63,3.42
37.832,2.70,2.24,0.71,3.58
37.842,2.90,2.24,0.81,3.75
37.852,3.23,2.18,1.09,4.04
37.862,3.76,2.07,1.29,4.48
37.872,4.25,1.93,1.19,4.82
37.882,4.70,1.92,0.97,5.17
37.892,4.95,2.05,0.69,5.41
37.902,4.96,2.19,0.44,5.44
37.912,4.73,2.25,0.22,5.24
37.922,4.28,2.22,0.22,4.83
37.932,3.79,2.02,0.34,4.31
37.942,3.42,1.68,0.31,3.82
37.952,3.28,1.42,0.17,3.57
37.962,3.29,1.40,-0.11,3.58
37.968,3.25,1.48,-0.45,3.60
37.978,3.09,1.33,-0.86,3.47
37.988,2.89,1.06,-1.33,3.35
37.998,2.52,0.87,-1.79,3.21
38.008,2.00,0.71,-2.11,3.00
38.018,1.36,0.59,-2.28,2.72
38.028,0.77,0.55,-2.37,2.55
38.038,0.40,0.53,-2.40,2.49
38.048,0.13,0.51,-2.33,2.39
38.058,-0.24,0.62,-1.85,1.97
38.068,-0.51,0.48,-1.31,1.49
38.078,-0.70,0.16,-0.75,1.03
38.088,-0.82,-0.28,-0.36,0.94
38.098,-0.88,-0.63,-0.22,1.10
38.108,-0.90,-0.86,-0.18,1.26
38.118,-0.87,-0.99,-0.18,1.33
38.128,-0.71,-1.13,-0.30,1.37
38.138,-0.54,-1.13,-0.40,1.32
38.148,-0.37,-1.01,-0.38,1.14
38.158,-0.11,-0.91,-0.32,0.98
38.168,0.18,-0.76,-0.16,0.79
38.178,0.31,-0.59,-0.05,0.67
38.188,0.10,-0.44,0.06,0.45
38.198,-0.23,-0.40,0.19,0.50
38.208,-0.51,-0.46,0.20,0.72
38.218,-0.96,-0.60,-0.01,1.13
38.228,-1.44,-0.71,-0.44,1.66
38.238,-1.68,-0.67,-0.85,2.00
38.248,-1.82,-0.55,-1.15,2.22
38.258,-1.81,-0.63,-1.18,2.26
38.268,-1.85,-0.98,-1.04,2.33
38.278,-2.02,-1.51,-1.00,2.71
38.288,-2.33,-2.04,-1.13,3.29
38.298,-2.69,-2.56,-1.34,3.94
38.308,-3.28,-2.83,-1.29,4.52
38.318,-4.19,-2.97,-0.67,5.18
38.328,-5.19,-3.11,0.36,6.06
38.338,-6.06,-3.36,1.19,7.03
38.348,-6.79,-3.48,1.36,7.75
38.358,-6.95,-3.23,1.27,7.77
38.368,-5.89,-2.68,1.47,6.64
38.378,-3.62,-1.67,1.55,4.28
38.390,-0.91,-0.74,1.50,1.91
38.400,2.21,0.36,1.22,2.55
38.410,6.40,2.11,0.62,6.77
38.420,10.50,2.82,0.03,10.87
38.430,13.14,3.25,0.09,13.54
38.440,14.05,3.82,0.25,14.56
38.450,12.79,4.38,0.61,13.53
38.460,10.59,4.52,0.87,11.55
38.470,8.69,4.23,1.19,9.74
38.480,7.01,3.24,1.64,7.89
38.490,5.64,2.27,1.65,6.30
38.500,5.30,3.21,1.01,6.28
38.510,6.17,4.01,-0.22,7.36
38.520,6.75,3.28,-1.22,7.60
38.530,6.05,1.88,-1.82,6.59
38.540,4.60,0.70,-1.87,5.01
38.550,2.87,-0.17,-1.28,3.15
38.560,1.28,-0.86,0.28,1.56
38.570,0.25,-1.74,1.51,2.31
38.580,-0.32,-2.50,1.58,2.98
38.590,-1.58,-3.80,0.83,4.20
38.600,-2.07,-4.30,-0.52,4.80
38.610,-2.98,-4.36,-1.93,5.62
38.620,-3.27,-4.24,-3.13,6.20
38.630,-3.40,-4.06,-4.12,6.72
38.640,-3.83,-4.01,-4.57,7.18
38.650,-4.51,-4.32,-4.25,7.55
38.660,-5.23,-5.25,-2.95,7.97
38.670,-5.98,-6.30,-0.95,8.74
38.680,-6.92,-6.84,0.93,9.77
38.690,-7.75,-7.00,2.29,10.69
38.700,-8.10,-6.99,2.71,11.04
38.710,-8.02,-6.88,2.61,10.88
38.720,-7.87,-6.79,2.84,10.78
38.730,-7.73,-6.82,3.32,10.83
38.740,-7.45,-6.94,3.28,10.69
38.750,-6.78,-7.08,2.83,10.20
38.760,-5.95,-6.69,2.56,9.31
38.770,-5.07,-6.08,2.21,8.22
38.780,-4.20,-5.61,1.45,7.16
38.790,-3.31,-5.25,0.57,6.24
38.800,-2.39,-4.91,-0.15,5.46
38.810,-1.27,-4.42,-0.79,4.66
38.820,0.39,-3.71,-1.46,4.01
38.830,2.41,-3.09,-2.03,4.42
38.840,5.47,-2.32,-2.68,6.51
38.850,8.46,-1.32,-3.18,9.13
38.860,10.81,0.16,-3.29,11.30
38.870,12.57,1.86,-3.41,13.16
38.880,13.40,3.07,-3.60,14.21
38.890,13.25,4.44,-3.45,14.39
38.900,12.36,5.54,-2.86,13.85
38.910,11.10,5.88,-2.19,12.75
38.920,9.43,5.56,-1.17,11.01
38.930,7.56,4.74,0.14,8.93
38.940,5.84,3.80,1.13,7.05
38.950,4.70,3.08,1.50,5.82
38.960,4.20,2.71,1.19,5.14
38.970,3.93,2.41,0.37,4.62
38.980,3.61,2.08,-0.68,4.22
38.990,3.23,1.70,-1.61,3.99
39.001,2.88,1.39,-2.01,3.78
39.010,2.44,0.89,-1.52,3.01
39.020,1.68,0.04,-0.44,1.74
39.030,0.64,-1.01,0.77,1.42
39.040,-0.32,-1.98,1.42,2.45
39.050,-0.94,-2.37,1.19,2.81
39.060,-2.51,-2.86,0.90,3.91
39.070,-3.60,-2.93,1.13,4.78
39.080,-5.00,-3.15,1.90,6.21
39.090,-6.57,-3.53,3.02,8.04
39.101,-7.88,-3.87,3.91,9.61
39.110,-8.70,-4.11,4.29,10.53
39.121,-9.19,-4.29,4.18,10.97
39.130,-9.54,-4.69,3.74,11.28
39.141,-9.40,-5.13,3.25,11.19
39.151,-8.50,-5.32,2.58,10.35
39.160,-6.91,-5.36,1.38,8.86
39.170,-5.17,-5.00,0.12,7.19
39.180,-3.48,-4.33,-0.83,5.62
39.190,-1.76,-3.65,-1.60,4.36
39.201,-0.04,-2.99,-1.98,3.59
39.210,1.58,-2.26,-2.01,3.41
39.221,3.76,-1.35,-1.76,4.37
39.231,5.61,-0.49,-1.35,5.79
39.241,6.80,0.22,-0.70,6.84
39.250,7.63,0.79,-0.14,7.67
39.260,7.62,1.16,0.36,7.72
39.270,6.94,1.51,0.67,7.14
39.281,5.91,1.72,0.72,6.20
39.290,4.73,1.83,0.67,5.11
39.301,3.57,1.72,0.71,4.03
39.311,2.76,1.43,0.76,3.20
39.321,2.27,1.21,0.93,2.73
39.331,2.09,1.15,0.99,2.58
39.341,2.03,1.14,0.71,2.43
39.351,1.81,1.17,0.20,2.16
39.361,1.36,1.18,-0.30,1.83
39.371,0.96,1.09,-0.60,1.57
39.381,0.26,0.85,-0.82,1.21
39.391,-0.25,0.41,-0.79,0.93
39.401,-0.48,0.21,-0.42,0.67
39.411,-0.68,0.12,-0.05,0.70
39.421,-0.66,0.08,0.12,0.68
39.431,-0.19,-0.14,0.20,0.31
39.441,-0.09,-0.30,0.25,0.40
39.451,-0.13,-0.19,0.22,0.31
39.461,0.21,-0.32,0.15,0.42
39.471,0.18,-0.23,0.03,0.29
39.481,-0.21,-0.53,-0.00,0.57
39.491,0.75,-1.70,0.94,2.08
39.501,-0.06,-0.99,1.32,1.65
39.511,-1.06,-1.07,0.74,1.68
39.521,-1.35,-1.82,-0.19,2.28
39.531,-1.66,-2.11,-1.01,2.87
39.541,-2.02,-2.09,-1.03,3.08
39.551,-2.09,-2.13,-0.27,2.99
39.561,-2.05,-2.20,0.27,3.02
39.571,-2.06,-2.36,0.41,3.16
39.581,-1.98,-2.30,0.32,3.05
39.591,-1.50,-2.27,-0.27,2.73
39.601,-0.63,-2.22,-0.94,2.49
39.611,-0.14,-1.92,-1.47,2.43
39.621,-0.04,-1.58,-1.73,2.34
39.631,-0.42,-1.38,-1.60,2.15
39.641,-0.86,-1.48,-1.21,2.10
39.651,-0.94,-1.78,-0.92,2.21
39.661,-0.79,-1.80,-0.96,2.19
39.671,-0.20,-1.62,-1.05,1.94
39.681,0.67,-1.29,-0.92,1.72
39.691,1.31,-0.85,-0.57,1.66
39.701,1.35,-0.37,-0.00,1.39
39.711,1.06,0.07,0.60,1.22
39.721,0.81,0.14,1.17,1.43
39.731,0.46,-0.22,1.61,1.69
39.741,0.11,-0.46,1.76,1.82
39.751,0.12,-0.40,1.31,1.37
39.761,0.49,-0.17,0.26,0.57
39.771,0.88,-0.20,-0.56,1.06
39.781,0.25,0.65,-1.17,1.37
39.791,-0.13,1.48,-1.25,1.94
39.801,-0.20,1.89,-0.81,2.07
39.811,-0.02,1.77,-0.11,1.78
39.821,0.45,1.39,0.70,1.62
39.831,0.98,1.11,1.69,2.25
39.841,1.44,1.04,2.58,3.14
39.851,1.73,0.91,2.97,3.55
39.861,1.73,0.68,2.67,3.25
39.871,1.40,0.51,2.00,2.49
39.881,0.70,0.52,1.31,1.57
39.891,0.13,0.42,0.86,0.97
39.901,0.04,0.11,0.76,0.77
39.911,0.23,-0.19,0.73,0.79
39.921,0.33,-0.28,0.55,0.70
39.931,0.33,-0.19,0.37,0.53
39.941,0.27,-0.14,0.30,0.43
39.951,0.23,-0.18,0.15,0.33
39.961,0.21,-0.27,-0.11,0.36
39.971,0.24,-0.25,-0.34,0.48
39.981,0.19,-0.09,-0.46,0.50
39.991,0.04,-0.04,-0.49,0.49
40.001,0.02,-0.09,-0.51,0.52
40.011,0.31,-0.14,-0.54,0.64
40.021,0.72,-0.00,-0.51,0.88
40.031,0.85,0.25,-0.36,0.96
40.041,0.77,0.39,-0.22,0.89
40.051,0.61,0.29,-0.08,0.69
40.061,0.62,0.15,0.03,0.64
40.071,0.85,0.19,0.22,0.90
40.081,0.93,0.29,0.21,0.99
40.091,0.79,0.30,0.05,0.85
40.101,0.64,0.26,-0.17,0.71
40.111,0.42,0.15,-0.40,0.60
40.121,0.18,0.19,-0.54,0.60
40.131,-0.08,0.23,-0.49,0.54
40.141,-0.29,0.07,-0.43,0.52
40.151,-0.39,-0.20,-0.39,0.59
40.161,-0.43,-0.38,-0.36,0.68
40.171,-0.41,-0.41,-0.42,0.72
40.181,-0.12,-0.31,-0.35,0.48
40.191,0.55,-0.19,-0.12,0.59
40.201,0.92,-0.04,-0.01,0.92
40.211,0.66,0.13,0.24,0.71
40.221,0.16,0.06,0.43,0.47
40.231,-0.08,-0.16,0.41,0.45
40.241,-0.19,-0.16,0.37,0.45
40.251,-0.32,-0.00,0.44,0.54
40.262,-0.28,0.14,0.53,0.62
40.271,-0.16,0.16,0.46,0.51
40.281,0.07,0.17,0.26,0.32
40.291,0.17,0.31,0.20,0.41
40.301,0.12,0.37,0.32,0.50
40.311,0.08,0.18,0.41,0.45
40.321,0.06,-0.12,0.42,0.44
40.331,-0.11,-0.24,0.40,0.48
40.341,-0.33,-0.15,0.34,0.50
40.351,-0.36,-0.03,0.28,0.45
40.361,-0.27,0.08,0.11,0.31
40.371,-0.14,0.19,-0.14,0.27
40.381,0.12,0.29,-0.29,0.43
40.391,0.41,0.34,-0.29,0.60
40.402,0.49,0.25,-0.17,0.58
40.411,0.41,-0.01,-0.05,0.41
40.421,0.28,-0.33,-0.14,0.45
40.432,0.10,-0.52,-0.33,0.63
40.441,-0.10,-0.56,-0.55,0.79
40.451,-0.20,-0.58,-0.63,0.88
40.462,-0.12,-0.63,-0.75,0.99
40.472,0.11,-0.60,-0.88,1.07
40.481,0.19,-0.33,-0.87,0.95
40.491,-0.01,-0.05,-0.66,0.66
40.502,-0.27,0.02,-0.45,0.53
40.512,-0.43,-0.09,-0.38,0.58
40.522,-0.51,-0.10,-0.34,0.62
40.532,-0.45,0.01,-0.13,0.47
40.542,-0.18,0.07,0.10,0.22
40.552,0.13,0.03,0.13,0.19
40.562,0.33,0.05,-0.02,0.33
40.572,0.38,0.21,-0.10,0.45
40.582,0.28,0.35,0.15,0.47
40.592,0.22,0.27,0.49,0.60
40.602,0.17,0.07,0.71,0.73
40.612,0.08,0.02,0.82,0.82
40.622,-0.02,0.09,0.84,0.84
40.632,-0.08,0.19,0.78,0.80
40.642,-0.13,0.30,0.63,0.71
40.652,-0.24,0.40,0.46,0.65
40.662,-0.29,0.46,0.35,0.65
40.672,-0.19,0.50,0.44,0.69
40.682,-0.04,0.48,0.65,0.81
40.692,0.05,0.52,0.79,0.95
40.702,-0.01,0.55,0.81,0.98
40.712,-0.13,0.52,0.77,0.94
40.722,-0.20,0.38,0.63,0.77
40.732,-0.26,0.27,0.42,0.56
40.742,-0.17,0.23,0.29,0.41
40.752,-0.08,0.14,0.32,0.36
40.762,0.06,0.03,0.41,0.41
40.772,0.17,-0.08,0.39,0.43
40.782,0.17,-0.11,0.16,0.26
40.792,-0.01,-0.08,-0.09,0.12
40.802,-0.42,-0.01,-0.25,0.49
40.812,-0.92,0.04,-0.24,0.95
40.822,-1.18,0.05,-0.11,1.19
40.832,-1.09,0.00,0.15,1.11
40.842,-0.81,0.08,0.31,0.87
40.852,-0.62,0.20,0.56,0.86
40.862,-0.35,0.32,0.67,0.82
40.872,-0.20,0.30,0.58,0.69
40.882,-0.17,0.25,0.45,0.54
40.892,-0.08,0.24,0.36,0.44
40.902,0.11,0.35,0.28,0.46
40.912,0.39,0.62,0.20,0.76
40.922,0.70,0.96,0.09,1.19
40.932,0.77,1.22,0.02,1.44
40.942,0.58,1.27,0.14,1.41
40.952,0.15,1.09,0.38,1.16
40.962,-0.29,0.73,0.70,1.05
40.972,-0.57,0.26,1.01,1.19
40.982,-0.70,-0.15,1.20,1.40
40.992,-0.72,-0.39,1.20,1.46
41.002,-0.59,-0.36,1.01,1.22
41.012,-0.36,-0.16,0.62,0.73
41.022,-0.15,0.12,0.15,0.24
41.032,0.09,0.34,-0.43,0.55
41.042,0.09,0.40,-0.54,0.68
41.052,0.07,0.29,-0.15,0.33
41.062,-0.04,-0.06,0.43,0.44
41.072,-0.13,-0.38,0.77,0.87
41.082,-0.12,-0.47,0.73,0.88
41.092,-0.03,-0.43,0.43,0.61
41.102,0.12,-0.29,-0.18,0.36
41.112,0.15,-0.34,-0.82,0.90
41.122,-0.06,-0.45,-1.34,1.41
41.132,-0.37,-0.45,-1.75,1.85
41.142,-0.64,-0.48,-2.09,2.24
41.152,-0.74,-0.65,-2.17,2.38
41.162,-0.72,-0.93,-1.86,2.20
41.172,-0.59,-1.08,-1.61,2.03
41.182,-0.25,-1.02,-1.99,2.25
41.192,-0.14,-0.84,-2.26,2.42
41.202,-0.24,-0.75,-2.07,2.21
41.212,-0.03,-0.93,-2.03,2.23
41.222,0.02,-1.07,-1.60,1.92
41.232,-0.19,-0.96,-0.51,1.10
41.242,-0.41,-0.96,0.45,1.13
41.252,-0.30,-1.04,1.03,1.50
41.262,0.00,-0.93,1.48,1.75
41.272,0.68,-0.54,1.27,1.54
41.282,1.63,-0.10,0.15,1.64
41.292,2.43,0.34,-1.15,2.71
41.302,2.97,0.76,-2.23,3.79
41.312,3.32,1.14,-2.53,4.33
41.323,3.23,1.54,-1.78,4.00
41.332,2.76,1.75,-0.61,3.32
41.342,2.05,1.25,0.24,2.41
41.352,1.18,0.47,0.66,1.42
41.362,0.62,-0.10,0.73,0.96
41.372,0.22,-0.52,0.61,0.83
41.382,-0.08,-0.67,0.47,0.83
41.392,-0.45,-0.58,0.32,0.80
41.402,-0.80,-0.55,0.11,0.98
41.412,-1.15,-0.80,-0.06,1.41
41.422,-1.39,-1.23,-0.24,1.87
41.432,-1.49,-1.74,-0.65,2.38
41.442,-1.50,-2.13,-1.12,2.83
41.452,-1.49,-2.34,-1.46,3.13
41.462,-1.43,-2.49,-1.72,3.35
41.472,-1.47,-2.55,-1.89,3.49
41.482,-1.61,-2.56,-1.94,3.59
41.492,-1.86,-2.65,-1.85,3.72
41.502,-2.15,-2.76,-1.65,3.87
41.512,-2.31,-2.91,-1.33,3.94
41.522,-2.27,-3.13,-0.89,3.97
41.532,-2.21,-3.23,-0.38,3.93
41.542,-2.07,-3.22,0.14,3.83
41.552,-1.78,-3.06,0.63,3.60
41.563,-1.43,-2.75,0.93,3.23
41.572,-0.83,-1.79,0.90,2.17
41.583,-0.14,-0.65,0.56,0.87
41.592,0.23,0.05,0.34,0.41
41.603,0.81,0.84,0.13,1.17
41.612,1.49,1.34,-0.02,2.00
41.623,2.03,1.79,0.00,2.70
41.632,2.29,2.12,0.13,3.12
41.643,2.48,2.35,0.25,3.43
41.652,2.49,2.52,0.40,3.57
41.663,2.41,3.02,0.72,3.93
41.672,2.47,3.37,0.87,4.27
41.683,2.73,3.39,0.89,4.45
41.692,3.39,3.43,0.79,4.89
41.703,4.18,3.30,0.59,5.36
41.712,4.45,3.15,0.32,5.47
41.723,4.76,2.77,-0.15,5.51
41.732,4.71,2.33,-0.52,5.28
41.743,4.23,1.76,-0.68,4.63
41.753,3.68,0.85,-0.92,3.88
41.763,3.34,0.72,-1.70,3.82
41.772,1.93,0.69,-1.31,2.43
41.783,0.22,0.38,-1.15,1.24
41.793,-0.40,0.07,-1.71,1.76
41.803,-0.55,-0.16,-2.11,2.19
41.813,-0.40,-0.18,-2.59,2.62
41.823,-0.15,-0.19,-2.96,2.97
41.833,-0.07,-0.19,-3.06,3.07
41.843,0.08,-0.15,-3.13,3.13
41.853,-0.23,-0.16,-2.71,2.72
41.863,-0.81,-0.06,-1.72,1.90
41.873,-1.11,0.08,-0.87,1.41
41.883,-0.78,-0.26,-0.43,0.93
41.893,-0.09,-0.86,-0.31,0.92
41.903,0.31,-1.11,-0.58,1.29
41.913,0.14,-1.08,-0.86,1.39
41.923,-0.37,-0.96,-0.54,1.17
41.933,-1.50,-0.93,0.49,1.83
41.943,-2.26,-0.87,1.35,2.77
41.953,-1.79,-1.23,1.54,2.67
41.963,-1.52,-1.57,1.78,2.82
41.971,-1.30,-1.60,1.74,2.70
41.981,-1.28,-1.50,1.54,2.50
41.991,-1.51,-1.22,1.34,2.36
42.001,-1.81,-1.13,1.04,2.37
42.011,-1.87,-1.38,0.44,2.37
42.021,-1.69,-1.59,-0.46,2.36
42.031,-1.47,-1.32,-1.23,2.33
42.041,-1.42,-0.66,-1.33,2.06
42.051,-1.30,-0.15,-0.92,1.60
42.061,-0.92,-0.14,-0.44,1.03
42.071,-0.41,-0.40,-0.13,0.59
42.081,-0.12,-0.56,-0.07,0.58
